"Time (s)","Linear Acceleration x (m/s^2)","Linear Acceleration y (m/s^2)","Linear Acceleration z (m/s^2)"
3.702625900E-2,5.232691765E-4,1.408487558E-3,-3.214645386E-2
4.706648000E-2,1.550719142E-3,3.157645464E-3,-8.544158936E-2
5.710670200E-2,-8.369982243E-4,-2.946555614E-3,-1.261043549E-1
6.714692300E-2,1.836135983E-3,3.592252731E-3,-1.034431458E-1
7.721766200E-2,8.363276720E-4,1.671284437E-3,-5.703163147E-2
8.725788400E-2,2.348721027E-4,4.659891129E-4,-1.340675354E-2
9.729810600E-2,-1.540377736E-3,3.934204578E-4,6.504058838E-4
1.073383280E-1,-1.454830170E-3,-1.533567905E-3,5.651950836E-2
1.173785490E-1,-2.863883972E-3,-4.901796579E-3,1.775960922E-1
1.274492880E-1,-1.182213426E-3,-1.366466284E-3,5.384445190E-2
1.374895100E-1,-1.874014735E-3,-3.141850233E-3,1.218414307E-1
1.475297310E-1,-2.195507288E-3,-2.018943429E-3,8.531951904E-2
1.575699530E-1,-1.288086176E-3,-1.278385520E-3,5.948925018E-2
1.676406920E-1,1.352548599E-3,1.155003905E-3,-4.919242859E-2
1.776809130E-1,-1.519829035E-2,2.137899399E-2,-2.408599854E-1
1.877211360E-1,-2.563914657E-2,-4.307807982E-2,-3.247814178E-1
1.977613570E-1,-3.655546904E-2,-7.193109393E-2,-3.990898132E-1
2.078015790E-1,-7.775783539E-3,-1.368049532E-1,-1.669178009E-1
2.178723180E-1,-7.347360253E-2,-1.829266846E-1,5.569362640E-2
2.279125390E-1,2.304352820E-2,-2.266596407E-1,3.453283310E-1
2.379527610E-1,-3.123007715E-2,-2.488529831E-1,4.266185760E-1
2.479929820E-1,1.501338184E-2,-2.605686188E-1,4.264230728E-1
2.580637220E-1,-5.651149154E-2,-2.553401887E-1,3.207817078E-1
2.681039430E-1,-2.338695526E-2,-2.199524939E-1,1.479864120E-1
2.781441650E-1,-5.517765880E-2,-2.247720212E-1,1.188306808E-1
2.881843870E-1,-7.431800663E-2,-1.699862629E-1,-4.435825348E-2
2.982246080E-1,-2.301245928E-2,-1.477485746E-1,-1.115512848E-2
3.082648300E-1,3.080993891E-3,2.591699362E-3,-1.106176376E-1
3.183355690E-1,5.466675758E-2,3.560572863E-3,-7.499217987E-2
3.283757910E-1,-2.007424831E-3,5.268299580E-2,-1.326179504E-1
3.384160120E-1,1.152681410E-1,7.039941847E-2,-9.444713593E-2
3.484562340E-1,5.306418240E-2,9.226601571E-2,-4.893207550E-2
3.584964560E-1,1.340993494E-1,1.215325817E-1,-1.098632812E-3
3.685671940E-1,7.802765071E-2,1.243248805E-1,1.306314468E-1
3.786074170E-1,1.023684740E-1,1.156630367E-1,9.714317322E-2
3.886476380E-1,1.098780483E-1,6.731116772E-2,1.929607391E-1
3.986878590E-1,7.459135354E-2,5.692756176E-2,9.245586395E-2
4.087280810E-1,1.119668335E-1,3.108637035E-2,1.044120789E-1
4.187988200E-1,3.777593374E-2,2.622786164E-2,-9.430789948E-2
4.288390420E-1,1.330543160E-1,6.548583508E-3,-1.039094925E-1
4.388792630E-1,6.994029880E-2,1.844748855E-3,-1.302690506E-1
4.489194860E-1,8.839395642E-2,2.858638763E-3,-6.808567047E-2
4.589597070E-1,3.694103658E-2,-1.223088801E-2,2.768611908E-2
4.690304460E-1,8.913350105E-2,-5.742818117E-3,5.876731873E-2
4.790706680E-1,9.821467102E-2,-1.918701828E-2,1.856670380E-1
4.891108890E-1,1.018477529E-1,-2.656131983E-3,1.233158112E-1
4.991511110E-1,1.459080875E-1,-2.055422962E-2,1.973428726E-1
5.091913320E-1,4.409241676E-2,4.100814462E-3,5.356979370E-2
5.192620710E-1,1.154683679E-1,-7.805377245E-4,6.536197662E-2
5.293022930E-1,2.102793753E-2,3.239354491E-2,-3.293418884E-2
5.393425150E-1,1.342027485E-1,4.398295283E-2,1.713371277E-2
5.493827370E-1,3.669936955E-2,4.040542245E-2,3.377819061E-2
5.594229580E-1,5.849064887E-2,5.929535627E-2,-1.660728455E-2
5.694936970E-1,3.734871745E-2,4.577572644E-2,3.119754791E-2
5.795339190E-1,1.687757671E-2,7.893939316E-2,-4.545688629E-2
5.895741400E-1,5.121603608E-2,5.380780995E-2,4.790115356E-2
5.996143620E-1,-9.017616510E-3,6.364868581E-2,-4.064273834E-2
6.096545840E-1,5.029904842E-2,4.555507004E-2,1.222181320E-1
6.196948060E-1,2.654790878E-4,1.613800228E-2,2.108907700E-1
6.297350270E-1,-2.067968249E-2,-3.041957319E-2,2.181653976E-1
6.398057660E-1,-7.846996188E-3,-1.833121479E-2,2.397861481E-1
6.498459880E-1,2.450391650E-3,-5.753578246E-2,1.153364182E-1
6.598862090E-1,3.157258034E-3,-3.417675197E-2,5.208969116E-3
6.699264310E-1,6.108388305E-3,-4.084397852E-2,-7.861423492E-2
6.799666530E-1,-9.436905384E-4,-3.033222258E-2,-1.361017227E-1
6.900068750E-1,1.101262867E-2,-1.605233550E-2,-6.667137146E-2
7.000776140E-1,2.779823542E-2,-1.258435845E-2,-9.059047699E-2
7.101178350E-1,3.987926245E-2,1.764699817E-2,5.070209503E-2
7.201580570E-1,3.808620572E-2,3.645029664E-2,1.968050003E-1
7.301982780E-1,1.707307994E-2,1.617245376E-2,2.926139832E-1
7.402385000E-1,1.497267187E-2,-3.514751792E-3,3.835887909E-1
7.502787220E-1,1.502758265E-2,3.131508827E-3,2.422714233E-1
7.603189430E-1,2.372190356E-2,3.713972867E-2,1.942291260E-1
7.703896830E-1,-6.505206227E-3,4.678678513E-2,2.946062088E-1
7.804299040E-1,-2.492289245E-2,5.643628538E-2,3.830146790E-1
7.904701260E-1,-2.792917192E-2,5.877808481E-2,3.876552582E-1
8.005103470E-1,-2.005435526E-2,8.008427918E-2,3.564176559E-1
8.105505690E-1,-1.360142231E-2,1.174192280E-1,2.366123199E-1
8.205907910E-1,3.358171880E-2,1.546579748E-1,1.048793793E-1
8.306310120E-1,6.387604773E-2,1.836723983E-1,-1.441478729E-1
8.406712340E-1,8.926448226E-2,1.876784265E-1,-3.548135757E-1
8.507114550E-1,9.308978915E-2,2.125350386E-1,-5.510511398E-1
8.607516770E-1,1.163144261E-1,2.186619490E-1,-5.819959641E-1
8.707918990E-1,1.203724295E-1,2.013439983E-1,-4.452457428E-1
8.808626370E-1,7.876837254E-2,1.907852590E-1,-1.886873245E-1
8.909028600E-1,4.409769177E-2,1.029633582E-1,7.991027832E-2
9.009430810E-1,2.277739346E-2,2.411065996E-2,2.503423691E-1
9.109833030E-1,2.163089812E-2,-3.902484477E-2,2.890090942E-1
9.210235240E-1,-1.053288579E-2,-7.835102081E-2,2.915344238E-1
9.310637460E-1,-5.905628204E-4,-9.977814555E-2,2.316961288E-1
9.411039680E-1,2.346915007E-2,-1.168807447E-1,1.478366852E-1
9.511441900E-1,1.700556278E-2,-1.377713382E-1,7.353401184E-2
9.611844110E-1,9.241282940E-3,-1.313475072E-1,6.147003174E-2
9.712246330E-1,3.332902491E-2,-1.109757423E-1,6.377887726E-2
9.812648550E-1,2.465669811E-2,-1.020698547E-1,2.781295776E-2
9.913355930E-1,3.310647607E-2,-7.142910361E-2,2.059078217E-2
1.001375815E0,5.132392049E-2,-8.609592915E-3,-2.969551086E-2
1.011416037E0,5.684190989E-2,5.012294650E-2,-1.533508301E-2
1.021456259E0,3.082673252E-2,5.972243845E-2,3.256607056E-2
1.031496480E0,3.774333000E-2,6.554587185E-2,7.569408417E-2
1.041536701E0,4.066541791E-3,7.651616633E-2,1.595373154E-1
1.051576924E0,-7.624223828E-2,1.102681607E-1,1.332464218E-1
1.061617145E0,-1.940435767E-1,1.520361602E-1,5.908679962E-2
1.071657367E0,2.636401355E-1,4.121930897E-2,8.304309845E-2
1.081697588E0,1.678907275E-1,-4.247713089E-2,-2.471446991E-2
1.091737810E0,5.409330130E-2,-6.335380673E-2,-9.646034241E-2
1.101778032E0,6.906667352E-2,-7.621040940E-2,-9.152221680E-2
1.111818254E0,9.379826486E-2,-3.708460927E-2,-6.742000580E-2
1.121888993E0,4.448042810E-2,-2.261433005E-2,2.375793457E-2
1.131929214E0,4.557679594E-2,1.280713081E-2,2.394580841E-2
1.141969436E0,6.274142861E-2,1.592293382E-2,6.478595734E-2
1.152009657E0,5.839809775E-2,6.008923054E-3,5.052852631E-2
1.162049879E0,4.939112067E-2,3.037580848E-2,3.382778168E-2
1.172090101E0,5.941745639E-2,1.712656021E-2,2.701759338E-3
1.182130323E0,6.904469430E-2,3.900274634E-2,-5.000591278E-2
1.192170544E0,3.812898695E-2,2.968201041E-2,-5.482769012E-2
1.202210765E0,1.916790009E-2,4.217991233E-2,-2.372837067E-2
1.212250987E0,2.489045262E-3,1.701191068E-2,4.570007324E-2
1.222291209E0,1.462009549E-2,8.989751339E-3,8.641338348E-2
1.232331431E0,1.511156559E-2,5.917251110E-3,9.601306915E-2
1.242371652E0,2.557624876E-2,-8.890241385E-3,2.183151245E-2
1.252442392E0,-9.266063571E-3,9.719192982E-3,-3.798294067E-2
1.262482613E0,-4.427632689E-2,9.787887335E-3,-9.059619904E-2
1.272522834E0,8.167228103E-2,-6.962418556E-4,-1.394748688E-2
1.282563056E0,8.763824403E-2,-2.371969819E-2,7.473945618E-2
1.292603278E0,6.287971884E-2,-2.954712510E-2,1.467351913E-1
1.302643500E0,3.789384663E-2,-1.648366451E-4,1.780443192E-1
1.312683721E0,1.118826866E-2,1.355898380E-2,1.805858612E-1
1.322723943E0,1.327954233E-2,1.140555739E-2,1.519498825E-1
1.332764164E0,1.762202382E-2,2.373930812E-2,1.040725708E-1
1.342804387E0,4.102125019E-2,1.609569788E-2,1.785564423E-2
1.352844608E0,4.539578408E-2,5.854666233E-3,-7.076263428E-2
1.362915347E0,4.302776605E-2,1.256963611E-2,-1.258459091E-1
1.372955569E0,5.958168954E-2,8.079975843E-3,-1.569633484E-1
1.382995790E0,6.649151444E-2,4.809528589E-3,-1.209974289E-1
1.393036012E0,5.637001246E-2,-4.189580679E-3,-1.075935364E-2
1.403076233E0,3.742919862E-2,-1.462730765E-2,6.840419769E-2
1.413116455E0,4.258171469E-2,-3.882795572E-3,7.573032379E-2
1.423156677E0,1.881217957E-2,6.170302629E-3,9.499835968E-2
1.433196898E0,1.789477468E-2,1.283931732E-2,3.999137878E-2
1.443237120E0,1.121661067E-2,2.376964688E-2,-3.181171417E-2
1.453277341E0,2.329556644E-2,2.526840568E-2,-8.446025848E-2
1.463348081E0,4.212655127E-2,4.873129725E-2,-1.035795212E-1
1.473388302E0,4.180639982E-2,7.018607855E-2,-6.043338776E-2
1.483428524E0,5.767764896E-2,5.719569325E-2,1.918792725E-3
1.493468746E0,6.395989656E-2,5.703040957E-2,8.825206757E-2
1.503508967E0,6.401847303E-2,1.463708282E-2,1.171760559E-1
1.513549189E0,8.170574903E-3,-1.997679472E-3,9.821701050E-2
1.523589410E0,-2.339249849E-2,2.563062310E-2,6.724071503E-2
1.533629633E0,-3.105644882E-2,1.664814353E-2,5.060291290E-2
1.543700371E0,-2.684786916E-2,7.316797972E-3,4.592037201E-2
1.553740593E0,1.992798597E-2,1.218906045E-2,4.601192474E-2
1.563780815E0,1.845648140E-2,-2.099066973E-2,4.850387573E-2
1.573821036E0,3.565721214E-2,-3.245264292E-2,2.705669403E-2
1.583861258E0,5.663082004E-3,-2.300241590E-2,1.277446747E-2
1.593901479E0,-9.562507272E-3,-2.064585686E-2,5.684852600E-3
1.603941702E0,3.881737590E-3,-4.403141141E-2,2.735233307E-2
1.613981923E0,-1.561942697E-2,-1.966083050E-2,4.423236847E-2
1.624022145E0,2.259978652E-2,-2.123537660E-2,8.268356323E-2
1.634092884E0,1.792824268E-2,-3.019085526E-2,1.283121109E-1
1.644133105E0,-2.673202753E-2,-3.711447120E-2,2.074518204E-1
1.654173327E0,-4.478634894E-2,2.201366425E-2,2.458505630E-1
1.664213548E0,3.448154032E-2,-3.535747528E-3,2.458906174E-1
1.674253771E0,9.161373973E-2,-3.682005405E-2,2.027692795E-1
1.684293992E0,9.278170764E-2,-5.822297931E-2,1.117496490E-1
1.694334213E0,5.841065198E-2,-2.879023552E-2,1.110553741E-2
1.704374435E0,2.194646001E-2,2.879351377E-3,-6.081199646E-2
1.714445174E0,8.706361055E-3,3.773364425E-2,-1.662216187E-1
1.724485396E0,-1.621386409E-2,7.384750247E-2,-2.835407257E-1
1.734525617E0,-2.101639658E-2,8.267217875E-2,-3.768386841E-1
1.744565840E0,-1.813539118E-2,9.223601222E-2,-3.622474670E-1
1.754606061E0,-1.516871154E-2,7.476589084E-2,-2.829303741E-1
1.764646282E0,9.066022933E-3,6.151261926E-2,-1.388816833E-1
1.774686504E0,2.373357862E-2,3.033274412E-2,3.396511078E-2
1.784757243E0,5.487600714E-2,8.602827787E-3,1.828689575E-1
1.794797465E0,4.988113046E-2,-2.150854468E-2,2.287673950E-1
1.804837686E0,3.985304385E-2,-2.458620071E-2,2.290935516E-1
1.814877908E0,2.247739583E-2,-5.321568251E-2,1.790590286E-1
1.824918130E0,4.320738465E-2,-3.162741661E-2,1.576271057E-1
1.834958351E0,3.527399898E-2,-4.675364494E-2,9.066581726E-2
1.844998573E0,5.820669234E-3,-3.055512905E-3,6.435298920E-2
1.855038794E0,1.928975433E-2,1.418912411E-2,1.408863068E-2
1.865079017E0,4.667544365E-2,2.152061462E-2,-1.704406738E-2
1.875149755E0,-2.374611795E-3,3.364574909E-2,-3.859806061E-2
1.885189977E0,-1.329750568E-2,7.229399681E-2,-1.944255829E-2
1.895230199E0,-3.056570888E-3,5.396237969E-2,-2.659797668E-3
1.905270420E0,-4.278346896E-3,6.692454219E-2,3.329181671E-2
1.915310642E0,9.153157473E-3,5.897185206E-2,5.252075195E-2
1.925350863E0,-7.688708603E-3,3.734028339E-2,3.588294983E-2
1.935391086E0,7.027968764E-3,2.984040976E-2,4.796791077E-2
1.945431307E0,2.928096056E-2,1.743233204E-2,5.047416687E-2
1.955502046E0,1.126942039E-2,1.299977303E-4,6.973934174E-2
1.965542268E0,-9.321428835E-3,1.855671406E-3,1.129388809E-1
1.975582489E0,2.287834883E-2,-1.231908798E-3,1.561384201E-1
1.985622711E0,6.429561973E-2,-7.755398750E-3,9.153938293E-2
1.995662932E0,5.744754151E-2,-3.150492907E-2,1.014995575E-2
2.005703155E0,-1.376652718E-2,-5.304253101E-2,-1.167354584E-1
2.015743376E0,-4.333668947E-2,-2.483767271E-2,-2.316951752E-1
2.025814115E0,-2.586801350E-2,-3.613346815E-2,-2.556200027E-1
2.035854337E0,9.086877108E-4,-2.369451523E-2,-2.004203796E-1
2.045894558E0,-1.504318416E-2,-2.590644360E-2,-5.651473999E-2
2.055934780E0,-1.645416766E-2,-3.892886639E-2,5.633449554E-2
2.065975001E0,1.165378839E-2,-2.565878630E-2,9.736824036E-2
2.076015224E0,1.133421063E-2,-8.774995804E-3,7.130527496E-2
2.086085962E0,1.821426302E-2,9.243309498E-3,-2.186393738E-2
2.096126184E0,5.866996944E-3,4.817664623E-3,-8.874797821E-2
2.106166406E0,-2.327995002E-2,1.211953163E-2,-1.101579666E-1
2.116206627E0,-1.157756150E-2,2.844631672E-3,-1.184177399E-2
2.126246849E0,-9.300306439E-3,-6.055533886E-3,1.631116867E-1
2.136287070E0,-3.993561864E-2,-3.004610538E-3,2.997636795E-1
2.146327293E0,-1.249777526E-2,-5.929410458E-3,3.357982635E-1
2.156367514E0,-1.828613132E-2,-2.221703529E-3,2.974433899E-1
2.166438253E0,5.015179515E-3,-1.720523834E-2,2.134895325E-1
2.176478475E0,4.232786596E-3,7.255852222E-3,9.355068207E-2
2.186518696E0,8.246175945E-3,4.050546885E-2,-9.536743164E-5
2.196558918E0,4.560025036E-2,5.509555340E-2,-5.779933929E-2
2.206599139E0,6.129053235E-2,7.781824470E-2,-1.082658768E-1
2.216639361E0,3.783158213E-2,7.029527426E-2,-9.883785248E-2
2.226679583E0,2.849698067E-2,6.437635422E-2,-7.974433899E-2
2.236719804E0,3.262693435E-2,3.676450253E-2,-8.208465576E-2
2.246790544E0,2.675046027E-2,1.525914669E-2,-1.178731918E-1
2.256830765E0,4.965953529E-2,-3.149509430E-4,-1.535959244E-1
2.266870987E0,5.121113360E-2,-1.680922508E-2,-1.724710464E-1
2.276911208E0,7.430604845E-2,-2.461546659E-2,-1.074600220E-1
2.286951430E0,5.006773770E-2,-2.213990688E-2,1.985263824E-2
2.296991652E0,1.179935038E-2,-1.981312037E-2,1.782903671E-1
2.307031873E0,-1.247161627E-2,-2.307313681E-2,3.366804123E-1
2.317072095E0,-2.213210613E-2,-1.757347584E-2,3.584146500E-1
2.327142834E0,-9.714171290E-3,-1.464229822E-2,2.914133072E-1
2.337183055E0,-1.546832174E-2,1.250505447E-4,1.069574356E-1
2.347223277E0,-2.298695594E-2,2.320730686E-2,-7.517433167E-2
2.357263499E0,-7.355098426E-2,1.535570621E-2,-1.806764603E-1
2.367303721E0,-2.723863423E-1,-4.336732626E-2,-2.142419815E-1
2.377343942E0,-1.430432796E-1,1.135133207E-1,-1.973772049E-1
2.387384164E0,3.890246153E-3,5.016487837E-2,-8.219337463E-2
2.397454903E0,-4.169440269E-2,3.980159760E-2,-1.368770599E-1
2.407495124E0,2.415586263E-2,4.758000374E-3,6.866455078E-5
2.417535346E0,3.884832561E-2,-9.565913677E-2,1.059598923E-1
2.427575568E0,-2.337836027E-1,-1.720434427E-1,1.496171951E-1
2.437615790E0,-8.135736734E-2,7.826161385E-2,1.980066299E-1
2.447656011E0,-1.271158457E-3,5.599796772E-2,2.247457504E-1
2.457726750E0,4.031819850E-2,1.539552212E-2,1.532220840E-1
2.467766972E0,1.224682406E-1,-7.073873281E-2,3.844165802E-2
2.477807193E0,1.806587279E-1,-7.574605942E-2,-6.974220276E-3
2.487847415E0,1.942610294E-1,-9.460669756E-2,-2.124118805E-2
2.497887637E0,1.434988081E-1,-1.018456817E-1,-3.550052643E-2
2.507927859E0,1.023531258E-1,-4.641538858E-2,-1.155948639E-2
2.517998598E0,-2.254029363E-2,-5.809533596E-2,1.718711853E-2
2.528038819E0,-5.861705542E-2,-3.162765503E-2,7.226181030E-2
2.538079041E0,-8.808559924E-2,3.482788801E-2,7.941913605E-2
2.548119262E0,-2.803217620E-2,6.877881289E-2,1.227474213E-2
2.558159484E0,-3.916748613E-2,8.970320225E-2,-6.929779053E-2
2.568199706E0,-5.039606243E-2,1.104631424E-1,-1.820049286E-1
2.578270444E0,-1.406417787E-2,1.421862245E-1,-2.202682495E-1
2.588310667E0,-4.208840430E-2,1.462597251E-1,-1.246967316E-1
2.598350888E0,-8.087970316E-3,1.548879147E-1,6.946659088E-2
2.608391110E0,3.069114685E-2,1.044556499E-1,2.325592041E-1
2.618431331E0,8.480847627E-2,8.721441031E-2,3.118457794E-1
2.628471553E0,1.162942499E-1,6.867623329E-2,3.168392181E-1
2.638511775E0,1.037179083E-1,8.168047667E-2,2.832231522E-1
2.648582513E0,7.033310831E-2,7.893276215E-2,2.782526016E-1
2.658622736E0,3.968380392E-2,6.325209141E-2,2.804050446E-1
2.668662957E0,2.123743296E-3,2.772378922E-2,2.274494171E-1
2.678703179E0,-3.544808924E-2,-1.567929983E-2,1.098079681E-1
2.688743400E0,-4.412813485E-2,-2.611666918E-2,-2.462673187E-2
2.698783622E0,-3.573515266E-2,-3.622359037E-2,-2.069158554E-1
2.708854361E0,-2.727033943E-2,-3.091466427E-2,-3.436450958E-1
2.718894582E0,-5.200988054E-2,-5.712759495E-2,-4.634828568E-1
2.728934805E0,-5.087364465E-2,-6.986600161E-2,-4.513978958E-1
2.738975026E0,-6.223677099E-2,-7.715654373E-2,-2.595567703E-1
2.749015248E0,-4.796095937E-2,-7.484632730E-2,6.655693054E-3
2.759055469E0,-3.637365997E-2,-1.099894643E-1,3.495416641E-1
2.769095691E0,-2.723873407E-2,-1.054674387E-1,4.960384369E-1
2.779135913E0,-2.552666515E-2,-1.422854066E-1,4.795303345E-1
2.789206651E0,-4.616878927E-3,-1.279841065E-1,3.095312119E-1
2.799246874E0,3.363849223E-2,-1.314553618E-1,-3.067588806E-2
2.809287095E0,-9.135730565E-3,-1.009536386E-1,-1.914424896E-1
2.819327317E0,-4.549995065E-3,-5.456364155E-2,-2.563419342E-1
2.829367538E0,2.411753684E-2,-2.984321117E-2,-2.109584808E-1
2.839407760E0,-1.157150418E-2,2.308583260E-2,-8.165359497E-2
2.849478499E0,-1.102102250E-1,6.787550449E-2,1.099891663E-1
2.859518720E0,-1.615045667E-1,9.158623219E-2,1.891298294E-1
2.869558943E0,-1.408588290E-1,1.001021266E-1,1.796302795E-1
2.879599164E0,-5.763742328E-2,7.580524683E-2,1.772079468E-1
2.889639386E0,-4.284249246E-2,7.713025808E-2,1.434669495E-1
2.899679607E0,-1.324129105E-2,8.797645569E-5,1.504735947E-1
2.909750346E0,-2.596659213E-2,-2.672946453E-2,1.431207657E-1
2.919790568E0,-3.817693889E-2,-2.976626158E-2,3.760147095E-2
2.929830789E0,-8.593916148E-2,1.910108328E-2,-1.062698364E-1
2.939871012E0,-1.355700791E-1,4.921072721E-2,-2.668914795E-1
2.949911233E0,-1.787499487E-1,8.266943693E-2,-2.790203094E-1
2.959951455E0,-1.033522114E-1,1.420589685E-1,-1.258335114E-1
2.970022194E0,-1.652799547E-2,1.060420871E-1,6.343555450E-2
2.980062415E0,-1.821874082E-2,7.970756292E-2,1.952524185E-1
2.990102637E0,5.172945559E-2,9.508907795E-3,1.905498505E-1
3.000142858E0,6.935949624E-2,-1.676368713E-2,6.604003906E-2
3.010183081E0,5.113091692E-2,-5.315405130E-2,-5.132102966E-2
3.020223302E0,5.744134262E-2,-5.494403839E-2,-4.186725616E-2
3.030263524E0,5.323516577E-2,-7.228845358E-2,-3.713321686E-2
3.040303745E0,4.150184989E-2,-5.995762348E-2,-3.611564636E-3
3.050374484E0,6.891973317E-2,-8.401364088E-2,-3.498077393E-3
3.060414706E0,7.970580459E-2,-6.119227409E-2,6.598472595E-2
3.070454927E0,5.589769036E-2,-6.958848238E-2,1.019544601E-1
3.080495150E0,4.487438127E-2,-7.560050488E-2,1.235675812E-1
3.090535371E0,2.079828456E-2,-7.722294331E-2,4.700088501E-2
3.100575592E0,2.353422344E-2,-9.792274237E-2,-1.661796570E-1
3.110615814E0,-5.326062441E-3,-1.189942360E-1,-3.099565506E-1
3.120656035E0,-3.251307458E-2,-1.104257107E-1,-2.693271637E-1
3.130726775E0,-1.167663932E-1,-3.205531836E-2,-5.854701996E-2
3.140766996E0,-3.383133560E-2,4.345417023E-3,1.427278519E-1
3.150807219E0,1.813776419E-2,-5.094510317E-2,2.864980698E-1
3.160847440E0,-3.645917028E-2,-7.243245840E-2,2.721233368E-1
3.170887661E0,-3.054080904E-2,-3.880709410E-2,1.043729782E-1
3.180927883E0,-3.129561245E-2,-2.133059502E-2,-5.630493164E-2
3.190968104E0,-3.635427356E-2,1.227736473E-2,-1.260395050E-1
3.201008327E0,-1.974782348E-2,2.747857571E-2,-1.861457825E-1
3.211079065E0,-1.459436119E-2,4.482573271E-2,-1.814689636E-1
3.221119287E0,-2.309501916E-2,8.233684301E-2,-1.312351227E-1
3.231159509E0,-5.943249166E-2,1.036745310E-1,-3.067779541E-2
3.241199730E0,-9.177330881E-2,8.206838369E-2,9.637069702E-2
3.251239952E0,-9.986400604E-2,7.256799936E-2,2.425842285E-1
3.261310691E0,-8.125711232E-2,2.133268118E-2,3.025426865E-1
3.271350913E0,-7.921010256E-2,-1.697456837E-2,2.474918365E-1
3.281391134E0,-5.043563247E-2,5.142450333E-3,1.157140732E-1
3.291431356E0,-1.736533642E-2,4.774004221E-2,-8.077812195E-2
3.301471578E0,-3.894485533E-3,6.641489267E-2,-1.910800934E-1
3.311542317E0,-3.172933310E-2,5.263870955E-2,-1.983690262E-1
3.321582539E0,-6.298486888E-2,-5.179762840E-3,-1.241712570E-1
3.331622760E0,-3.532513976E-2,-3.494960070E-2,-3.072261810E-2
3.341662981E0,3.938074410E-2,-1.360774040E-2,-1.862812042E-2
3.351703203E0,3.999548033E-2,-1.330435276E-3,3.898906708E-2
3.361743425E0,-3.566766530E-2,-2.721732855E-2,1.325321198E-1
3.371783647E0,-3.936283290E-3,-8.154630661E-2,1.710252762E-1
3.381823868E0,5.955286324E-3,-2.979838848E-2,1.926507950E-1
3.391894608E0,2.061010897E-2,-1.747810841E-2,1.375923157E-1
3.401934829E0,3.274023905E-2,1.499694586E-2,6.328964233E-2
3.411975050E0,2.404218540E-2,-2.948051691E-2,-3.736591339E-2
3.422015272E0,-2.734430134E-3,-2.654445171E-2,-9.255313873E-2
3.432055494E0,-1.970922947E-2,-5.850791931E-2,-1.213378906E-1
3.442095716E0,-3.183738887E-2,-6.707155704E-2,-9.014987946E-2
3.452135937E0,-2.314076573E-2,-5.391329527E-2,8.993148804E-4
3.462206676E0,1.907914877E-3,-7.558178902E-2,9.919929504E-2
3.472246898E0,-6.272625178E-3,-4.151755571E-2,1.375350952E-1
3.482287119E0,-2.371067926E-2,-5.076450109E-2,1.112155914E-1
3.492327341E0,-3.374959528E-2,-2.061986923E-2,7.284259796E-2
3.502367563E0,-2.461465076E-2,-5.326747894E-3,2.007389069E-2
3.512407785E0,-7.254008949E-2,-7.634150982E-2,-3.971481323E-2
3.522448006E0,-9.043252468E-2,-6.805300713E-2,-6.835174561E-2
3.532518745E0,7.523341477E-2,1.343727112E-1,-1.070442200E-1
3.542558967E0,8.842797577E-2,6.790041924E-2,-8.561992645E-2
3.552599188E0,-1.984235644E-2,8.274316788E-3,-1.047630310E-1
3.562639410E0,1.051456481E-2,-5.376815796E-3,-1.214818954E-1
3.572679632E0,-4.657308012E-2,-6.517851353E-2,2.951049805E-2
3.582719854E0,-8.800402284E-2,-8.315563202E-3,2.020025253E-1
3.592760075E0,-5.671031401E-2,-1.153749228E-2,2.260456085E-1
3.602800297E0,-7.489882410E-2,-5.684846640E-2,5.607604980E-2
3.612871036E0,-1.643016040E-1,-6.320333481E-2,-4.217720032E-2
3.622911257E0,1.398559287E-2,1.146684289E-1,6.276416779E-2
3.632951479E0,9.103856236E-2,7.634818554E-2,1.223049164E-1
3.642991701E0,7.508456707E-3,7.207590342E-2,1.148576736E-1
3.653031923E0,7.757969201E-3,5.402338505E-2,6.891250610E-3
3.663072144E0,-6.665935367E-2,9.503698349E-2,-1.514034271E-1
3.673142883E0,2.094053775E-1,7.838743925E-2,-1.563415527E-1
3.683183105E0,1.071314961E-1,7.772725821E-2,-1.274108887E-2
3.693223326E0,-3.802829981E-2,9.078824520E-2,1.453342438E-1
3.703263548E0,-1.994958520E-1,1.376079619E-1,1.573810577E-1
3.713303770E0,4.139055610E-1,-5.302673578E-2,4.729175568E-2
3.723343992E0,1.467348039E-1,-9.307175875E-2,-5.562686920E-2
3.733414731E0,-1.773410589E-1,8.886754513E-3,-9.385204315E-2
3.743454952E0,-1.500556618E-1,7.098394632E-2,-9.372138977E-2
3.753495174E0,-1.349983811E-1,8.608841896E-2,-5.044078827E-2
3.763535395E0,-2.362374216E-1,6.102633476E-2,1.682281494E-2
3.773575617E0,-2.527323365E-1,1.323181391E-2,7.534027100E-3
3.783615839E0,-1.410063505E-1,-3.454190493E-2,7.890701294E-3
3.793686577E0,-1.645480096E-2,-7.562023401E-2,-2.774238586E-2
3.803726800E0,7.007128000E-2,-9.592735767E-2,-1.793003082E-2
3.813767021E0,1.348899752E-1,-1.355707049E-1,4.454231262E-2
3.823807243E0,8.431848139E-2,-1.717326045E-1,1.167964935E-1
3.833847464E0,1.068824381E-1,-1.170881391E-1,1.290254593E-1
3.843918203E0,1.427721530E-1,-5.970382690E-2,1.422119141E-2
3.853958425E0,1.300192624E-1,2.078121901E-2,-7.446002960E-2
3.863998646E0,5.452904105E-2,1.203670502E-1,-4.580116272E-2
3.874038869E0,-2.415146679E-2,1.320371032E-1,9.766197205E-2
3.884079090E0,2.140684575E-1,7.717031240E-2,1.954479218E-1
3.894119312E0,9.782858938E-2,4.209583998E-2,2.026777267E-1
3.904190051E0,-3.578495979E-2,1.796019077E-2,1.499958038E-1
3.914230272E0,-8.061331511E-2,-4.751819372E-2,6.135845184E-2
3.924270494E0,-1.178446040E-1,-8.234935999E-2,-2.012538910E-2
3.934310715E0,-8.562105894E-2,-7.396942377E-2,-9.920597076E-2
3.944350938E0,-3.553472087E-2,-5.672913790E-2,-1.015596390E-1
3.954391159E0,-2.393911406E-2,-3.140693903E-2,-5.596923828E-2
3.964461898E0,-1.815196127E-2,-1.047223806E-2,3.512954712E-2
3.974502120E0,-3.459287062E-2,7.673859596E-3,5.198192596E-2
3.984542341E0,1.471714303E-2,-1.358747482E-3,-1.023769379E-2
3.994582563E0,-2.464056388E-2,-1.599335670E-2,-2.701950073E-2
4.004653302E0,-3.954616562E-2,-4.732853174E-2,-6.999969482E-4
4.014693523E0,-4.447737709E-2,-4.510712624E-2,-3.105163574E-3
4.024733745E0,-5.840868130E-2,-3.332167864E-2,1.364326477E-2
4.034773967E0,-3.713320568E-2,6.275057793E-3,-6.543731689E-2
4.044814189E0,-1.804575324E-2,4.091936350E-2,-1.325578690E-1
4.054884928E0,1.302202418E-2,4.706984758E-2,-5.122184753E-2
4.064925149E0,-1.553254202E-2,3.731346130E-2,1.091785431E-1
4.074965371E0,-5.168247968E-2,-9.667813778E-3,1.954269409E-1
4.085005592E0,-1.624038443E-2,-3.307181597E-2,2.313718796E-1
4.095045814E0,-1.934990287E-4,-2.595257759E-2,1.499614716E-1
4.105086036E0,-3.413859382E-2,-2.173620462E-2,-1.048946381E-2
4.115156775E0,-8.790247142E-2,-1.791042089E-2,-1.278705597E-1
4.125196997E0,-5.533620715E-2,1.794207096E-2,-6.084251404E-2
4.135237218E0,-4.782189429E-2,2.107667923E-2,8.525371552E-2
4.145277440E0,-7.160155475E-2,-1.551806927E-3,3.175773621E-1
4.155348179E0,-6.174875796E-2,-3.767728806E-3,3.247728348E-1
4.165388401E0,-1.628384367E-2,-5.105513334E-2,9.720706940E-2
4.175428622E0,5.009602755E-3,-4.509371519E-2,-1.400547028E-1
4.185468843E0,-7.695477456E-3,-3.628611565E-3,-1.594696045E-1
4.195509066E0,-7.046213001E-2,4.777693748E-2,-1.830387115E-2
4.205549287E0,-8.302968740E-2,7.716184855E-2,1.397428513E-1
4.215620027E0,-5.884403735E-2,5.453997850E-2,1.637620926E-1
4.225660248E0,-3.560157120E-2,1.898276806E-2,1.773548126E-2
4.235700470E0,-3.487376124E-2,3.951668739E-3,-1.211681366E-1
4.245740691E0,6.958382204E-3,3.110885620E-3,-2.050142288E-1
4.255780912E0,4.334672540E-2,7.956326008E-3,-1.355781555E-1
4.265821135E0,8.844799548E-2,1.796782017E-2,6.076526642E-2
4.275891873E0,8.998152614E-2,2.470493317E-3,1.637935638E-1
4.285932096E0,7.491528988E-2,-2.147251368E-2,1.470317841E-1
4.295972317E0,6.749185920E-2,8.267402649E-3,6.793403625E-2
4.306012538E0,6.622021645E-2,2.225399017E-2,-1.364994049E-2
4.316052760E0,5.785900354E-2,-1.575970650E-2,-9.758472443E-2
4.326123499E0,2.598212846E-2,3.994345665E-3,-1.360082626E-1
4.336163721E0,1.524225622E-2,1.037120819E-3,-1.647768021E-1
4.346203942E0,-1.191399619E-2,1.628243923E-2,-1.527519226E-1
4.356244165E0,-5.012518913E-2,-4.283010960E-3,-7.831859589E-2
4.366284386E0,-6.376892328E-2,-1.438879967E-2,1.293659210E-2
4.376324607E0,-5.111532658E-2,-1.767826080E-2,6.346702576E-2
4.386364829E0,-3.142683208E-2,-2.440190315E-2,7.083606720E-2
4.396435568E0,-2.874530293E-2,-3.482240438E-2,7.572555542E-2
4.406475790E0,2.850401029E-2,-3.235059977E-2,9.488391876E-2
4.416516011E0,4.027003795E-2,-4.051691294E-2,5.890560150E-2
4.426556233E0,-5.182687193E-3,-9.187048674E-2,2.052879333E-2
4.436596455E0,-2.020518482E-2,-7.441359758E-2,1.323413849E-2
4.446636676E0,-2.193422988E-3,1.942729950E-2,4.902076721E-2
4.456676898E0,-3.163313866E-2,8.409386873E-2,6.083774567E-2
4.466717119E0,-3.869594261E-2,5.346602201E-2,3.254890442E-3
4.476787859E0,-3.121300414E-2,2.153104544E-2,-9.016895294E-2
4.486828080E0,-3.321480379E-2,1.914095879E-2,-1.141109467E-1
4.496868302E0,-2.585431375E-2,4.862320423E-2,-1.829338074E-2
4.506908524E0,2.566402778E-3,2.256429195E-2,7.764434814E-2
4.516948745E0,2.677555941E-2,-9.988665581E-3,1.808118820E-1
4.526988967E0,-3.250823915E-2,-4.847061634E-2,1.689853668E-1
4.537029188E0,-3.866976127E-2,-5.189156532E-2,1.307706833E-1
4.547069411E0,-5.660743266E-2,-4.927891493E-2,7.572269440E-2
4.557109632E0,-9.227752686E-2,-4.252243042E-2,2.303028107E-2
4.567180371E0,-1.445345432E-1,-3.450345993E-2,-1.004219055E-3
4.577220593E0,-1.693945974E-1,1.779001951E-2,-1.792716980E-2
4.587260814E0,-1.149765402E-1,1.080608368E-2,-2.763843536E-2
4.597301036E0,-6.616649032E-2,1.837515831E-2,-5.888843536E-2
4.607341257E0,7.200635970E-3,2.376627922E-2,-6.617736816E-2
4.617381480E0,4.286561161E-2,7.714807987E-3,-4.951667786E-2
4.627421701E0,6.194550544E-2,-1.244246960E-3,-5.440807343E-2
4.637461923E0,4.097677767E-2,-3.647917509E-2,-4.253005981E-2
4.647532662E0,1.156043261E-3,-4.347705841E-2,-3.786373138E-2
4.657572883E0,8.271798491E-3,-6.895005703E-2,-2.597618103E-2
4.667613105E0,3.524556756E-2,-7.497960329E-2,-4.520416260E-2
4.677653326E0,8.192225546E-2,-3.623974323E-2,-1.219482422E-1
4.687693549E0,5.523703247E-2,1.642620564E-2,-1.771659851E-1
4.697733770E0,7.711506635E-2,6.868135929E-2,-1.246805191E-1
4.707773991E0,5.369329080E-2,9.938091040E-2,-7.698059082E-2
4.717844731E0,3.224574029E-4,7.928842306E-2,5.942726135E-2
4.727884952E0,-1.513740420E-2,5.655324459E-2,1.432924271E-1
4.737925174E0,-4.996540025E-2,1.430422068E-2,1.672801971E-1
4.747965395E0,-5.511499569E-2,-2.739429474E-4,1.098051071E-1
4.758005618E0,-3.168763593E-2,-2.278226614E-2,-5.066871643E-2
4.768045839E0,-5.785919726E-3,-1.985245943E-2,-1.609182358E-1
4.778086060E0,3.700025380E-2,2.459883690E-4,-2.352294922E-1
4.788156800E0,7.751373202E-2,-1.675677299E-2,-1.729955673E-1
4.798197021E0,4.770981148E-2,-1.779001951E-2,4.016685486E-2
4.808237243E0,-1.529395208E-2,-4.711556435E-2,2.198390961E-1
4.818277464E0,1.053754985E-2,-4.082459211E-2,2.773895264E-1
4.828317686E0,2.016248554E-2,-1.009823680E-1,1.576614380E-1
4.838388425E0,3.624599427E-3,-6.975466013E-2,-4.359149933E-2
4.848428647E0,5.677051842E-3,-6.832939386E-2,-2.042121887E-1
4.858468869E0,7.494870573E-3,-3.470647335E-2,-2.139310837E-1
4.868509090E0,1.141469926E-2,2.939623594E-2,-7.989311218E-2
4.878549312E0,2.263228595E-2,7.345318794E-2,1.811313629E-1
4.888620051E0,-1.134339347E-2,4.603803158E-2,4.206295013E-1
4.898660272E0,-9.089031070E-2,1.251888275E-2,4.780874252E-1
4.908700494E0,-1.539727002E-1,5.208611488E-3,4.396228790E-1
4.918740716E0,-1.479086578E-1,5.036658049E-2,3.291749954E-1
4.928780938E0,-1.080511436E-1,1.004617214E-1,1.922607422E-1
4.938821159E0,-7.927075028E-2,1.262686551E-1,4.815196991E-2
4.948861380E0,-6.869415194E-2,1.119597852E-1,-1.390094757E-1
4.958932120E0,-5.261468142E-2,1.012671292E-1,-3.021497726E-1
4.968972341E0,-5.264669284E-2,4.715555906E-2,-4.316463470E-1
4.979012563E0,-7.875281572E-2,1.458263397E-2,-4.317169189E-1
4.989052785E0,-1.416353881E-2,1.056981087E-2,-2.808265686E-1
4.999093007E0,3.302830458E-2,-2.048611641E-2,-9.632396698E-2
5.009133228E0,6.729510427E-2,-3.426033258E-2,1.313009262E-1
5.019173449E0,7.676772773E-2,-6.370526552E-2,2.678670883E-1
5.029244189E0,1.151074842E-2,-1.072839499E-1,3.276901245E-1
5.039284410E0,-8.415415883E-3,-1.581801772E-1,2.341394424E-1
5.049324632E0,7.673159242E-3,-1.323388815E-1,1.835632324E-2
5.059364854E0,4.314753041E-2,-6.916964054E-2,-1.615657806E-1
5.069405075E0,5.503854901E-2,9.001374245E-3,-2.265243530E-1
5.079445297E0,4.549190402E-2,2.160727978E-2,-1.908416748E-1
5.089485518E0,4.039856791E-2,5.020397902E-2,-8.803272247E-2
5.099556258E0,-8.033171296E-3,7.321098447E-2,1.965236664E-2
5.109596479E0,-1.841708645E-2,9.775590897E-2,7.953739166E-2
5.119636701E0,-2.646952868E-2,8.896443248E-2,8.915328979E-2
5.129676923E0,-3.167977929E-2,6.279426813E-2,6.521892548E-2
5.139747661E0,-6.532946229E-2,4.613965750E-2,5.325222015E-2
5.149787883E0,-2.523365617E-2,1.240611076E-3,3.412914276E-2
5.159828105E0,-2.029677108E-2,-5.142509937E-3,5.332660675E-2
5.169868327E0,1.990105957E-3,-2.568817139E-2,1.060581207E-1
5.179908548E0,6.321780384E-4,-4.386651516E-2,1.085119247E-1
5.189979287E0,-5.779005587E-3,-5.522322655E-2,2.475261688E-2
5.200019509E0,-7.071085274E-4,-5.051189661E-2,-7.101917267E-2
5.210059730E0,8.754860610E-3,-5.953311920E-2,-1.476030350E-1
5.220099952E0,2.315689251E-2,-4.749977589E-2,-1.571760178E-1
5.230140174E0,5.321755633E-2,-5.223178864E-2,-9.000778198E-2
5.240210912E0,6.678493321E-2,-2.287924290E-3,3.220844269E-2
5.250251135E0,4.640779272E-2,-4.671871662E-3,1.137514114E-1
5.260291356E0,3.801190853E-2,-1.537585258E-2,1.210107803E-1
5.270331578E0,5.716516823E-2,-1.508498192E-2,3.244304657E-2
5.280371799E0,5.682058632E-2,-1.791906357E-2,-2.983379364E-2
5.290442538E0,3.080535121E-2,-1.617819071E-2,-2.508068085E-2
5.300482760E0,1.468814909E-2,-4.726171494E-3,3.623008728E-3
5.310522981E0,-1.336659864E-2,-1.433151960E-2,-1.074028015E-2
5.320563204E0,-2.982993051E-2,-1.410937309E-2,-4.663848877E-2
5.330603425E0,-4.646928608E-2,1.221573353E-2,-4.903316498E-2
5.340674164E0,-2.311712503E-2,5.500674248E-3,-6.816291809E-2
5.350714386E0,-6.853610277E-3,2.791047096E-2,-2.262687683E-2
5.360754607E0,9.476296604E-3,4.073113203E-2,1.138887405E-1
5.370794829E0,2.294771373E-3,2.792173624E-2,2.624168396E-1
5.380835050E0,-1.902111620E-2,4.061126709E-2,3.199195862E-1
5.390905790E0,-2.352255583E-2,1.343268156E-2,2.504415512E-1
5.400946011E0,-3.949652240E-2,8.309185505E-3,6.593799591E-2
5.410986233E0,-4.156011716E-2,2.361679077E-2,-1.473598480E-1
5.421026455E0,-6.055628508E-2,1.557242870E-2,-2.600698471E-1
5.431066676E0,-8.391956240E-2,2.125459909E-2,-2.864856720E-1
5.441137416E0,-5.417855456E-2,2.191281319E-2,-2.457427979E-1
5.451177637E0,-1.689266413E-2,2.669960260E-2,-1.282863617E-1
5.461217858E0,1.356195658E-3,3.018891811E-2,2.993488312E-2
5.471258080E0,-1.418225095E-2,3.156405687E-2,1.977472305E-1
5.481298302E0,-5.888566747E-2,2.002930641E-2,2.936801910E-1
5.491369041E0,-5.583973974E-2,-4.989087582E-3,2.530584335E-1
5.501409263E0,-3.550442681E-2,-1.399952173E-2,9.733772278E-2
5.511449485E0,-2.725454792E-2,-2.681767941E-2,-1.877498627E-1
5.521489706E0,-2.631114051E-2,-2.049106359E-2,-4.201631546E-1
5.531529927E0,-3.513314947E-2,-1.707720757E-2,-4.800910950E-1
5.541600667E0,-2.275739238E-2,-9.031295776E-4,-2.669038773E-1
5.551640888E0,-2.282061800E-2,2.316015959E-2,2.026367188E-1
5.561681110E0,-2.570009604E-2,3.088235855E-3,6.267642975E-1
5.571721332E0,-4.778486490E-2,-1.126205921E-2,8.688516617E-1
5.581761553E0,-5.107901990E-2,-4.276335239E-2,7.705230713E-1
5.591801775E0,-5.455080047E-2,-8.168518543E-3,4.348440170E-1
5.601872514E0,-4.379121959E-2,-8.544862270E-3,2.473735809E-2
5.611912736E0,-1.868239418E-2,2.624982595E-2,-2.178001404E-1
5.621952957E0,-2.656309679E-2,3.456360102E-2,-3.787946701E-1
5.631993179E0,2.625120245E-2,5.653157830E-2,-3.839378357E-1
5.642033401E0,2.005514130E-2,5.179193616E-2,-3.194112778E-1
5.652073622E0,1.894141361E-2,4.110994935E-2,-2.690582275E-1
5.662113844E0,2.744557336E-2,2.481979132E-2,-2.041320801E-1
5.672184583E0,2.142164856E-2,-9.175002575E-3,-1.415205002E-1
5.682224805E0,8.112441748E-3,-6.537318230E-3,-5.252933502E-2
5.692265026E0,9.123571217E-3,-3.260809183E-2,1.492023468E-2
5.702305247E0,2.817571163E-3,-4.248285294E-2,7.276630402E-2
5.712345470E0,-1.501895487E-3,-8.276283741E-2,1.616458893E-1
5.722385691E0,-6.116360426E-3,-1.021750569E-1,1.427497864E-1
5.732425913E0,5.657557398E-3,-1.066706777E-1,1.476888657E-1
5.742466134E0,7.826536894E-3,-7.301461697E-2,1.955795288E-1
5.752536874E0,1.710142940E-2,-5.124020576E-2,2.313661575E-1
5.762577095E0,2.624815702E-2,-2.450406551E-3,1.760787964E-1
5.772617316E0,3.304367512E-2,1.395028830E-2,1.063556671E-1
5.782657539E0,2.084488049E-2,3.654438257E-2,7.851600647E-3
5.792697760E0,1.362535357E-2,8.101221919E-2,-4.992771149E-2
5.802737982E0,-1.985030249E-2,9.416794777E-2,-6.701087952E-2
5.812778203E0,-1.999264210E-2,1.032965183E-1,6.927490234E-3
5.822818425E0,-4.816127196E-2,1.042560339E-1,1.479854584E-1
5.832858647E0,-5.752995238E-2,8.862996101E-2,2.652368546E-1
5.842898869E0,-1.074149460E-1,8.718025684E-2,3.034696579E-1
5.852939090E0,-8.051149547E-2,7.741940022E-2,2.123584747E-1
5.863009829E0,-6.282007694E-2,4.255595803E-2,-8.097648621E-3
5.873050051E0,-4.943960160E-2,1.931428909E-2,-2.022304535E-1
5.883090272E0,-1.649756730E-2,1.373463869E-2,-3.819475174E-1
5.893130494E0,1.417344064E-2,-3.026455641E-2,-4.394407272E-1
5.903170716E0,3.749008104E-2,-4.737269878E-2,-3.483438492E-1
5.913210937E0,2.195615694E-2,-3.199142218E-2,-1.828346252E-1
5.923251159E0,-8.356891572E-3,-5.858594179E-2,3.061866760E-2
5.933291380E0,-2.239096910E-2,-5.930626392E-2,2.105283737E-1
5.943362120E0,-5.851913244E-2,-8.561521769E-2,3.161287308E-1
5.953402341E0,-4.484333843E-2,-7.885497808E-2,3.353834152E-1
5.963442563E0,-4.811512679E-2,-1.134616137E-1,2.754640579E-1
5.973482785E0,-3.870768845E-2,-1.111384630E-1,1.843509674E-1
5.983523006E0,-3.624061495E-2,-7.602441311E-2,4.518890381E-2
5.993563228E0,-2.822601050E-2,-4.897147417E-2,-6.288528442E-2
6.003603449E0,-3.281824291E-3,2.588331699E-3,-1.565599442E-1
6.013674189E0,-2.645773441E-2,2.694916725E-2,-1.998748779E-1
6.023714410E0,7.440023124E-3,5.528965592E-2,-1.904382706E-1
6.033754631E0,3.814676031E-2,8.250612020E-2,-1.258745193E-1
6.043794854E0,1.854952425E-2,8.244636655E-2,-3.250789642E-2
6.053835075E0,1.562858745E-2,7.478410006E-2,7.532596588E-2
6.063875297E0,-1.952700317E-3,8.173817396E-2,1.927461624E-1
6.073915518E0,-2.203977853E-2,6.365913153E-2,2.215251923E-1
6.083955740E0,-2.482512593E-2,3.412678838E-2,2.166929245E-1
6.094026479E0,-2.268944681E-2,1.506048441E-2,1.591119766E-1
6.104066700E0,-3.449747711E-2,4.399478436E-3,9.908008575E-2
6.114106923E0,-1.225590706E-2,1.215523481E-2,-3.041458130E-2
6.124147144E0,2.253123000E-2,-1.133695245E-2,-1.383628845E-1
6.134187366E0,5.976879597E-2,-2.948698401E-2,-1.768484116E-1
6.144227587E0,1.037968695E-2,-4.592171311E-2,-6.202125549E-2
6.154267809E0,-4.655036330E-2,-2.012526989E-2,6.006050110E-2
6.164308031E0,-3.661499918E-2,-3.748670220E-2,1.031284332E-1
6.174348253E0,6.917513907E-3,-2.474126220E-2,6.714057922E-2
6.184388474E0,1.892115548E-2,-8.232772350E-3,-6.467056274E-2
6.194428695E0,-2.205060422E-2,-1.853433251E-2,-2.348127365E-1
6.204499435E0,-2.484330535E-2,-1.119080186E-2,-2.828083038E-1
6.214539656E0,-1.093414426E-2,-4.311442375E-3,-1.822690964E-1
6.224579878E0,-1.145024598E-2,-1.190379262E-2,4.570007324E-3
6.234620100E0,1.221473515E-2,-6.269365549E-3,2.010498047E-1
6.244660322E0,-6.785981357E-3,-4.247260094E-2,2.969217300E-1
6.254700543E0,-1.592013240E-2,-4.756420851E-2,2.538156509E-1
6.264740764E0,8.292295039E-3,-5.309632421E-2,1.650781631E-1
6.274780986E0,1.251958311E-3,-2.950260043E-2,1.001882553E-1
6.284821208E0,-8.345961571E-3,-1.898172498E-2,7.355308533E-2
6.294861430E0,-4.157112539E-2,-4.026979208E-3,9.479331970E-2
6.304901651E0,-2.181333303E-2,3.505498171E-3,1.040582657E-1
6.314972390E0,8.020572364E-3,3.011229634E-2,4.150104523E-2
6.325012612E0,9.791895747E-3,2.146133780E-2,-6.890010834E-2
6.335052833E0,1.886783540E-2,2.090755105E-2,-1.577072144E-1
6.345093055E0,3.518155217E-2,1.946282387E-2,-1.650428772E-1
6.355133277E0,5.553354323E-2,1.059201360E-2,-1.244039536E-1
6.365173499E0,5.461591482E-2,-2.234876156E-2,-4.535770416E-2
6.375213720E0,3.208698332E-2,-1.843407750E-2,7.203674316E-2
6.385253942E0,1.121740788E-2,-2.625390887E-2,1.200046539E-1
6.395294164E0,-2.978385240E-2,-5.098360777E-2,8.894824982E-2
6.405334386E0,-3.586357832E-2,-5.340626836E-2,-1.880359650E-2
6.415374607E0,-1.574061066E-2,-4.451796412E-2,-8.109569550E-2
6.425414828E0,-7.570438087E-3,-2.334147692E-3,-6.199455261E-2
6.435485568E0,-1.785305887E-2,-1.794695854E-4,-3.328132629E-2
6.445525789E0,-3.682129085E-3,7.456421852E-3,5.292892456E-2
6.455566011E0,2.784254402E-2,2.200788260E-2,1.534967422E-1
6.465606233E0,3.112386912E-2,1.904162765E-2,1.702384949E-1
6.475646454E0,2.959358692E-2,1.477062702E-2,1.318569183E-1
6.485686676E0,6.199255586E-3,-1.118928194E-3,2.155780792E-2
6.495726897E0,6.313413382E-3,-8.049279451E-3,-4.088687897E-2
6.505767119E0,-2.025751024E-2,4.124373198E-3,-6.742000580E-2
6.515807341E0,-5.375409126E-2,2.168786526E-2,-7.237720490E-2
6.525847563E0,-6.297690421E-2,6.702095270E-3,-7.857322693E-3
6.535887784E0,-5.278085917E-2,-2.644717693E-3,7.824993134E-2
6.545928006E0,-6.292620301E-2,7.805228233E-5,1.045169830E-1
6.555968227E0,-3.951040655E-2,-6.561282277E-2,9.251976013E-2
6.566038966E0,-4.233742505E-2,-5.611541867E-2,6.370544434E-2
6.576079188E0,-3.818340600E-2,-4.485356808E-2,-3.442764282E-3
6.586119410E0,-3.418932110E-2,-1.494166255E-2,-6.342792511E-2
6.596159632E0,-2.795564383E-2,8.284807205E-3,-7.790374756E-2
6.606199853E0,-5.427904427E-3,3.694716096E-2,-4.447269440E-2
6.616240075E0,1.645363867E-2,4.003697634E-2,7.517337799E-2
6.626280296E0,2.830056846E-2,1.281166077E-2,1.278085709E-1
6.636320518E0,3.978865221E-2,-7.572948933E-3,1.205739975E-1
6.646360740E0,1.797549427E-2,-3.648769855E-2,5.582618713E-2
6.656400961E0,5.739666522E-3,-4.653298855E-2,-3.526687622E-2
6.666471701E0,-2.295636386E-2,-3.320384026E-2,-4.737091064E-2
6.676511922E0,-2.989191562E-2,-1.951953769E-2,-4.269695282E-2
6.686552143E0,-3.176313639E-2,-2.927854657E-2,-4.483222961E-3
6.696592365E0,-4.732207209E-2,-6.056427956E-4,-6.957054138E-3
6.706632587E0,-4.602363706E-2,-7.923603058E-3,-2.619266510E-2
6.716672809E0,-9.364619851E-3,-1.154422760E-3,-5.501937866E-2
6.726713030E0,2.015852183E-2,7.480382919E-4,-5.272388458E-2
6.736753252E0,1.166464388E-2,3.122031689E-3,5.972671509E-2
6.746823991E0,1.533552259E-2,7.823467255E-3,1.673898697E-1
6.756864212E0,9.569421411E-3,2.379715443E-3,2.175731659E-1
6.766904434E0,1.058890671E-2,-1.157188416E-2,1.719388962E-1
6.776944656E0,-2.227467299E-2,6.547182798E-3,8.315467834E-2
6.786984878E0,-1.758387685E-2,9.497553110E-3,3.743553162E-2
6.797025099E0,-3.949922323E-2,5.410969257E-3,6.087303162E-3
6.807065321E0,-3.076614439E-2,-2.915889025E-3,-5.636787415E-2
6.817105542E0,1.941114664E-3,-2.691000700E-3,-1.163816452E-1
6.827145765E0,2.287816256E-2,8.477151394E-3,-1.114654541E-2
6.837216503E0,-1.570707560E-2,9.125113487E-3,1.276588440E-1
6.847256725E0,-2.049355209E-2,-1.129534841E-2,1.611375809E-1
6.857296947E0,6.493151188E-3,1.045998931E-2,6.530666351E-2
6.867337168E0,3.399698436E-2,1.188221574E-2,-5.210304260E-2
6.877377390E0,2.592030913E-2,1.762285829E-2,-1.838874817E-1
6.887417611E0,3.209370375E-2,-1.183450222E-4,-2.797431946E-1
6.897457834E0,-9.984932840E-3,-2.956736088E-2,-2.055330276E-1
6.907498055E0,2.607107162E-4,-4.458010197E-2,5.216598511E-3
6.917568794E0,1.242625713E-2,-5.613395572E-2,2.686672211E-1
6.927609016E0,4.584316909E-2,-4.702872038E-2,4.123783112E-1
6.937649237E0,1.683273166E-2,-2.429637313E-2,4.003667831E-1
6.947689459E0,-7.637403905E-3,-4.389625788E-2,1.751461029E-1
6.957729680E0,-1.271915436E-2,-2.388522029E-2,2.496719360E-3
6.967769902E0,-1.558877528E-2,1.577740908E-2,-8.400726318E-2
6.977810124E0,-3.515687585E-2,3.671616316E-3,-1.345615387E-1
6.987850345E0,-2.821061015E-2,-2.016872168E-3,-1.180238724E-1
6.997890567E0,-1.381394267E-2,-8.871853352E-4,-4.396247864E-2
7.007961306E0,-1.112624258E-2,2.817068994E-2,-1.534461975E-2
7.018001528E0,-6.006307900E-3,3.419920802E-2,3.005981445E-2
7.028041749E0,8.621662855E-3,2.433547378E-2,5.154323578E-2
7.038081971E0,4.249639809E-3,-8.951604366E-3,3.712844849E-2
7.048122193E0,1.413338631E-2,-2.063563466E-2,7.778167725E-2
7.058162414E0,2.879648656E-2,-3.213490546E-2,9.210395813E-2
7.068202636E0,-1.366573572E-2,-2.727225423E-2,9.684276581E-2
7.078242857E0,-3.500975668E-3,-1.099044085E-2,9.917449951E-2
7.088313596E0,-1.262117177E-2,-3.571704030E-2,1.014995575E-1
7.098353818E0,-3.829948604E-2,-1.095493138E-2,3.437709808E-2
7.108394040E0,-1.619872451E-2,-2.470406890E-2,-3.993320465E-2
7.118434262E0,1.564882696E-2,-5.059212446E-3,-1.214227676E-1
7.128474483E0,-3.717914224E-4,-2.523629367E-2,-1.143083572E-1
7.138514705E0,-2.283826470E-3,6.542727351E-3,-3.772544861E-2
7.148554926E0,1.712171733E-2,-1.587894559E-2,5.563259125E-2
7.158625665E0,2.208866179E-2,-2.232387662E-3,1.418104172E-1
7.168665887E0,1.963286847E-2,5.716741085E-3,1.657171249E-1
7.178706109E0,2.622246742E-3,-1.163390279E-2,1.081905365E-1
7.188746331E0,7.046103477E-3,-6.684988737E-3,4.584026337E-2
7.198786552E0,6.383471191E-3,7.177948952E-3,-1.891803741E-2
7.208826774E0,-3.739729524E-3,-5.430772901E-3,-3.100299835E-2
7.218866995E0,-6.238885224E-3,2.346041799E-2,-3.109264374E-2
7.228907218E0,-2.501368523E-2,7.191136479E-3,-3.356456757E-2
7.238977956E0,-2.431601286E-3,-2.989424765E-2,-1.446342468E-2
7.249018178E0,8.555203676E-4,-4.947625101E-2,-2.408123016E-2
7.259058400E0,-2.426694334E-2,-6.367823482E-2,-7.346153259E-3
7.269098621E0,7.342331111E-3,-5.208706856E-2,3.091812134E-2
7.279138843E0,6.905421615E-4,-2.442830801E-2,5.720138550E-2
7.289179064E0,3.717437387E-3,-2.343110740E-2,8.826923370E-2
7.299219287E0,-1.229649037E-2,-3.919035196E-3,9.778213501E-2
7.309259508E0,-1.160459965E-2,-7.058262825E-3,1.192512512E-1
7.319299729E0,2.939559519E-3,3.167137504E-3,9.521007538E-2
7.329370469E0,1.696718484E-2,-8.940175176E-3,9.509944916E-2
7.339410690E0,3.064345568E-2,1.972913742E-4,4.710197449E-2
7.349450912E0,5.960293114E-3,-4.282905161E-2,3.904342651E-3
7.359491133E0,1.397396624E-2,-2.392981946E-2,1.337051392E-2
7.369531355E0,-6.135150790E-3,1.645153761E-2,1.803302765E-2
7.379571577E0,-4.652269185E-2,3.281259537E-2,-1.322555542E-2
7.389611798E0,-2.233854681E-2,7.056370378E-3,-3.486442566E-2
7.399652020E0,3.898795694E-2,3.247732297E-2,9.677982330E-2
7.409722759E0,8.850108832E-2,4.825607315E-2,-6.597518921E-2
7.419762981E0,-8.252701163E-2,3.720949218E-2,-7.054901123E-2
7.429803202E0,-4.283542931E-2,-4.555195570E-3,4.691886902E-2
7.439843424E0,-4.551352561E-2,-3.859116882E-2,5.884742737E-2
7.449883646E0,-2.863357961E-2,-4.613111541E-2,-8.330345154E-3
7.459923867E0,5.993291736E-3,-2.914662659E-2,-2.999210358E-2
7.469964089E0,1.423120499E-2,-3.200271353E-2,1.067447662E-2
7.480004310E0,1.253864169E-2,-3.883954510E-2,3.700923920E-2
7.490075049E0,-7.952749729E-4,-5.027657375E-2,-1.565837860E-2
7.500115271E0,3.021457791E-2,-2.874812111E-2,-3.482627869E-2
7.510155493E0,5.754762888E-2,-1.434512436E-2,5.372905731E-2
7.520195715E0,-1.531943679E-3,-1.415497065E-2,1.877717972E-1
7.530235936E0,-5.824327469E-2,-4.066132754E-2,1.661901474E-1
7.540276158E0,-4.081720114E-2,-4.718231410E-2,2.010440826E-2
7.550316379E0,-4.138335586E-3,-1.317840070E-2,-1.044378281E-1
7.560387118E0,-1.024532318E-2,-5.171122029E-3,-2.505197525E-1
7.570427340E0,2.913683653E-3,4.245956428E-3,-3.175830841E-1
7.580467562E0,1.164872199E-2,-7.798200473E-3,-1.835231781E-1
7.590507784E0,2.056197822E-2,-1.498080418E-2,5.109977722E-2
7.600548005E0,3.175301850E-2,-4.440821707E-3,3.383960724E-1
7.610588227E0,1.390653849E-2,-2.640666440E-3,4.820327759E-1
7.620628448E0,2.467688173E-2,1.939135231E-2,4.197626114E-1
7.630699187E0,4.014134407E-3,8.129447699E-3,2.545356750E-1
7.640739409E0,2.090655267E-3,2.938780375E-2,5.580329895E-2
7.650779631E0,1.374489069E-2,2.024203911E-2,-5.193138123E-2
7.660819853E0,8.298814297E-3,9.099669755E-3,-1.093664169E-1
7.670860074E0,8.347243071E-3,-4.336924106E-2,-1.164999008E-1
7.680900296E0,5.282968283E-3,-3.799873963E-2,-1.547384262E-1
7.690971035E0,-1.574817300E-2,-3.685398027E-2,-1.211490631E-1
7.701011256E0,-2.192514390E-2,-4.724146426E-2,-7.799434662E-2
7.711051478E0,7.630109787E-3,-1.627904177E-2,-2.529048920E-2
7.721091700E0,-6.726698577E-2,2.534434944E-2,2.741718292E-2
7.731131922E0,1.330181956E-1,-8.558847010E-3,1.255722046E-1
7.741172143E0,7.070007175E-2,3.736358136E-2,3.227233887E-2
7.751212365E0,-4.428625107E-5,-1.891523600E-3,6.116962433E-2
7.761283104E0,-4.941500723E-2,-2.719908208E-2,7.804298401E-2
7.771323325E0,-4.999825358E-2,-5.508834869E-2,1.331424713E-1
7.781363547E0,-1.027414203E-2,-5.961255729E-2,1.259622574E-1
7.791403769E0,2.367794514E-2,-5.292519927E-2,6.285667419E-3
7.801443991E0,2.095673978E-2,-6.748020649E-2,-3.915023804E-2
7.811484212E0,1.718274504E-2,-6.015522033E-2,-9.654045105E-2
7.821524434E0,1.022666693E-3,-3.540876508E-2,-1.108474731E-1
7.831595173E0,1.456805319E-2,-9.737834334E-3,-4.617500305E-2
7.841635394E0,2.943985909E-2,-1.173439622E-2,2.086544037E-2
7.851675616E0,3.353095800E-2,-3.918096423E-3,9.746265411E-2
7.861715838E0,4.618664086E-2,1.511032879E-2,1.166000366E-1
7.871756060E0,2.816114575E-2,6.909713149E-3,1.118154526E-1
7.881796281E0,-6.615005434E-3,3.528383374E-2,1.046924591E-1
7.891867020E0,-2.744841576E-2,3.157080710E-2,1.000041962E-1
7.901907242E0,-2.816339582E-2,4.584571719E-2,5.704307556E-2
7.911947463E0,-2.644161880E-2,-9.241312742E-3,4.999923706E-2
7.921987685E0,-2.019928396E-2,-1.902368665E-2,-4.922866821E-3
7.932027907E0,-2.390534431E-2,-4.976536334E-2,-2.394104004E-2
7.942068129E0,1.478105783E-2,-3.937302530E-2,-7.058143616E-3
7.952108350E0,2.181845903E-2,-3.051917255E-2,1.938247681E-2
7.962148571E0,-5.658468604E-2,-4.057556391E-3,4.581737518E-2
7.972219311E0,3.554321080E-2,-4.385505617E-2,1.608028412E-1
7.982259532E0,8.562247455E-2,5.479243398E-2,3.162193298E-2
7.992299754E0,7.372558117E-3,7.206320763E-3,2.465629578E-2
8.002339976E0,5.273878574E-3,1.021623611E-4,4.400062561E-2
8.012380197E0,1.639846712E-2,-1.412828267E-2,-6.355762482E-2
8.022420419E0,-1.214187294E-1,-1.556099951E-2,-1.040344238E-1
8.032460640E0,-5.850869417E-2,-3.244926035E-2,-6.796073914E-2
8.042500862E0,-3.858730197E-3,-2.322594821E-2,-8.945465088E-4
8.052571601E0,-4.199862480E-3,-5.580449104E-2,2.304553986E-2
8.062611823E0,1.604452729E-3,-4.058933258E-2,2.785396576E-2
8.072652045E0,1.521880180E-2,-1.391792297E-2,1.592540741E-2
8.082692266E0,3.629396856E-2,-6.872519851E-3,-5.565643311E-3
8.092732488E0,3.359124064E-2,-2.159686387E-2,2.562618256E-2
8.102772709E0,-2.240940928E-3,-3.380829096E-2,8.554840088E-2
8.112843449E0,4.782214761E-3,-2.710367739E-2,1.909666061E-1
8.122883670E0,-1.916916668E-2,-2.872185409E-2,1.575536728E-1
8.132923891E0,-7.570460439E-3,-1.756405830E-2,1.265754700E-1
8.142964114E0,-1.765760779E-2,-7.662475109E-3,1.004209518E-1
8.153004335E0,1.714208722E-2,3.775298595E-3,6.710624695E-2
8.163044557E0,8.646152914E-3,-4.193425179E-3,-3.323554993E-2
8.173084778E0,2.682963014E-2,7.119178772E-3,-1.455411911E-1
8.183125000E0,3.388684243E-2,-3.329387307E-2,-2.506761551E-1
8.193165222E0,3.454254568E-2,-2.645105124E-2,-1.403741837E-1
8.203205444E0,-1.800814271E-2,-2.070590854E-2,7.275676727E-2
8.213245665E0,-3.530253470E-2,-2.357935905E-2,2.116279602E-1
8.223285886E0,-2.709644288E-2,-3.237706423E-2,1.685676575E-1
8.233356626E0,-1.525197923E-2,-3.850486875E-2,4.415702820E-2
8.243396847E0,4.568710923E-3,-1.276862621E-2,-1.089468002E-1
8.253437069E0,9.810470045E-3,-4.129022360E-3,-2.117595673E-1
8.263477291E0,5.241307989E-2,-3.609061241E-3,-1.589756012E-1
8.273517513E0,1.814724505E-2,-2.209109068E-2,-9.088516235E-4
8.283557734E0,2.681779861E-2,-3.592035174E-2,2.241449356E-1
8.293597955E0,3.555977345E-2,-2.443444729E-2,3.582544327E-1
8.303638177E0,2.687978745E-2,8.122146130E-3,3.368320465E-1
8.313678399E0,2.454586327E-2,-3.900915384E-3,2.006149292E-1
8.323749138E0,-1.698592305E-2,2.428230643E-2,7.035255432E-3
8.333789360E0,-4.955071956E-2,1.462158561E-2,-5.478763580E-2
8.343829581E0,-5.008541048E-2,-1.205924153E-2,-9.026622772E-2
8.353869803E0,-3.752102703E-2,-2.323395014E-2,-6.832504272E-2
8.363910024E0,1.142158359E-2,-3.744590282E-2,-3.207302094E-2
8.373950246E0,1.804435253E-2,-4.853364825E-2,-3.421306610E-2
8.383990468E0,-9.103298187E-3,-3.163871169E-2,-1.006126404E-2
8.394030690E0,-7.966269553E-2,-2.531954646E-2,-7.493019104E-3
8.404070911E0,4.452088475E-2,-3.708782792E-2,3.811359406E-2
8.414111133E0,1.161440760E-1,-3.401780128E-2,7.407093048E-2
8.424181872E0,3.219706565E-2,-5.118334293E-2,2.363204956E-3
8.434222093E0,7.019594312E-3,-3.578892350E-2,-3.813838959E-2
8.444262315E0,-5.497101694E-2,-3.631666303E-2,-9.062671661E-2
8.454302537E0,-9.496635199E-2,-3.963270783E-2,-1.151371002E-2
8.464342759E0,-4.598861188E-2,-6.999146938E-2,1.081762314E-1
8.474382980E0,-2.585313469E-2,-3.592073917E-2,1.919317245E-1
8.484423202E0,2.197533846E-3,-2.399885654E-2,1.488304138E-1
8.494463423E0,2.494850755E-2,1.032096148E-2,2.441596985E-2
8.504503645E0,3.392732143E-2,2.517372370E-3,-8.077526093E-2
8.514574384E0,1.605526358E-2,-1.055034995E-2,-1.045465469E-1
8.524614606E0,-2.212990075E-2,-2.766323090E-2,-3.259658813E-2
8.534654828E0,-1.074539870E-2,-3.836077452E-2,6.800174713E-2
8.544695049E0,-2.070964128E-2,-1.089927554E-2,1.087560654E-1
8.554735271E0,-8.993774652E-3,-3.158628941E-3,1.232004166E-1
8.564775492E0,-9.184598923E-3,1.560094953E-2,8.741092682E-2
8.574815714E0,-2.279214561E-3,2.838969231E-2,6.364631653E-2
8.584886453E0,2.011120319E-3,3.312024474E-2,2.555561066E-2
8.594926675E0,2.326919138E-2,9.083777666E-3,9.018898010E-3
8.604966897E0,3.299204260E-2,-5.255550146E-3,-2.725601196E-3
8.615007118E0,4.117044061E-2,-7.048249245E-3,-9.697914124E-3
8.625047339E0,2.345643938E-3,-8.374899626E-3,9.656906128E-3
8.635087561E0,-7.994674146E-3,-1.655125618E-2,2.660083771E-2
8.645127783E0,2.384131402E-2,-2.892100811E-2,1.477432251E-2
8.655168005E0,1.691666991E-2,-3.380295634E-2,-1.143741608E-2
8.665238744E0,1.199130714E-2,-3.601422906E-2,2.458286285E-2
8.675278966E0,2.607849985E-2,-9.306341410E-3,2.946758270E-2
8.685319187E0,3.030695021E-2,-3.679415584E-2,1.275634766E-2
8.695359408E0,9.036213160E-3,-1.888254285E-2,6.070613861E-2
8.705399630E0,-2.114236355E-3,-9.910762310E-4,3.683757782E-2
8.715439852E0,4.012510180E-3,-1.440143585E-2,3.692626953E-2
8.725480074E0,-1.597000659E-2,-1.365554333E-2,3.224086761E-2
8.735520295E0,4.750341177E-3,-1.564645767E-2,-1.073455811E-2
8.745591034E0,-2.929121256E-2,-4.593285918E-2,-5.843162537E-3
8.755631256E0,-1.830863953E-2,-4.054224491E-2,-1.052284241E-2
8.765671477E0,-3.375579417E-2,-3.967738152E-2,-1.282119751E-2
8.775711699E0,-1.896497607E-2,-5.751165748E-2,-1.994323730E-2
8.785751921E0,-3.737686574E-2,-5.352446437E-2,-1.031589508E-2
8.795792143E0,-1.530799270E-2,-4.022252560E-2,7.114887238E-2
8.805862882E0,1.828148961E-3,-8.386075497E-3,1.287002563E-1
8.815903103E0,1.401063800E-2,1.313686371E-3,1.336088181E-1
8.825943325E0,4.361361265E-3,7.583796978E-3,9.307765961E-2
8.835983546E0,-1.531662047E-2,3.395670652E-2,5.979824066E-2
8.846023768E0,5.574613810E-3,3.813856840E-2,4.570770264E-2
8.856094507E0,-9.309038520E-3,3.286904097E-2,5.316257477E-2
8.866134728E0,4.183158278E-3,2.794998884E-2,5.820274353E-2
8.876174951E0,-3.007480502E-2,1.133286953E-2,-4.211139679E-2
8.886215172E0,-1.653330028E-2,1.914793253E-2,-9.696388245E-2
8.896255394E0,-3.023579717E-3,9.141623974E-3,-6.569480896E-2
8.906326133E0,-3.881514072E-3,3.091156483E-3,5.407333374E-2
8.916366355E0,-2.380658686E-2,-2.090382576E-2,1.163148880E-1
8.926406576E0,-2.252860367E-2,-4.508417845E-2,7.321739197E-2
8.936446797E0,9.956069291E-3,-4.640316963E-2,-1.055145264E-2
8.946487020E0,1.258606464E-2,-2.983152866E-2,-1.038379669E-1
8.956557758E0,1.838602871E-2,-2.951812744E-2,-1.420745850E-1
8.966597981E0,2.165093273E-2,-4.615855217E-2,-7.266807556E-2
8.976638202E0,3.859384358E-2,-2.524471283E-2,1.355314255E-1
8.986678423E0,3.528999537E-2,-6.747364998E-3,3.030471802E-1
8.996718645E0,2.648952603E-2,-1.111555099E-2,3.652820587E-1
9.006758866E0,2.371266484E-3,-6.506681442E-3,2.672615051E-1
9.016829606E0,8.175306022E-3,8.959352970E-3,9.520339966E-2
9.026869827E0,-3.276534379E-3,1.431488991E-2,-1.204681396E-2
9.036910050E0,-3.544986248E-5,3.657811880E-2,-9.774494171E-2
9.046950271E0,-1.996339858E-2,9.871602058E-3,-1.021003723E-1
9.056990492E0,-3.572814167E-3,-3.045022488E-3,-7.064056396E-2
9.067030714E0,-8.256718516E-3,-2.161264420E-3,-4.646492004E-2
9.077101453E0,-2.931177616E-3,-6.555199623E-3,-2.957820892E-2
9.087141675E0,-4.285804927E-3,1.417028904E-2,-1.754665375E-2
9.097181896E0,-1.492384076E-2,1.419478655E-2,3.992938995E-2
9.107222118E0,1.002673805E-2,3.429555893E-2,8.058547974E-2
9.117262340E0,-8.043527603E-3,2.812391520E-2,9.250831604E-2
9.127333079E0,-6.505288184E-3,4.896461964E-3,6.854248047E-2
9.137373301E0,2.752423286E-3,3.424882889E-4,7.094669342E-2
9.147413522E0,9.727209806E-3,-1.416772604E-2,7.337760925E-2
9.157453744E0,6.938621402E-3,-4.988473654E-2,1.188802719E-1
9.167493965E0,3.423377872E-3,-3.610932827E-2,1.189317703E-1
9.177534187E0,1.805509627E-2,-5.823653936E-2,8.066272736E-2
9.187604926E0,3.310799599E-3,-3.869283199E-2,1.374053955E-2
9.197645148E0,3.985539079E-4,-1.501375437E-2,-1.058149338E-1
9.207685370E0,1.927202195E-2,-2.418583632E-2,-1.847076416E-1
9.217725591E0,9.647697210E-3,-1.013159752E-2,-1.439876556E-1
9.227765812E0,9.393595159E-3,-8.503079414E-3,-1.480197906E-2
9.237806034E0,3.759867698E-2,-1.747256517E-2,1.166906357E-1
9.247876773E0,2.733474225E-2,4.847109318E-3,1.619815826E-1
9.257916995E0,2.893169224E-2,2.610534430E-2,1.546630859E-1
9.267957217E0,9.058170021E-3,1.370376348E-2,6.848907471E-2
9.277997439E0,1.084779203E-2,1.677936316E-2,5.661296844E-2
9.288037660E0,5.573123693E-3,3.354209661E-2,5.914497375E-2
9.298108399E0,2.202153206E-2,4.552066326E-3,4.972362518E-2
9.308148621E0,5.232825875E-3,-1.252949238E-2,5.467605591E-2
9.318188842E0,-1.727119088E-3,-1.531726122E-2,2.851200104E-2
9.328229064E0,-1.090911776E-2,-2.514678240E-2,3.107452393E-2
9.338269286E0,-2.035260201E-2,-1.299548149E-2,8.627796173E-2
9.348309507E0,-1.360699534E-2,-5.406558514E-3,9.118270874E-2
9.358380247E0,1.192798465E-2,-9.650588036E-3,9.128665924E-2
9.368420468E0,-7.144734263E-4,-2.057015896E-3,8.661365509E-2
9.378460690E0,-3.658056259E-3,1.283454895E-2,9.869480133E-2
9.388500911E0,-1.832275093E-2,4.106938839E-3,1.155462265E-1
9.398541133E0,-1.374354213E-2,1.712787151E-2,1.730880737E-1
9.408581355E0,-1.616203785E-2,1.592928171E-2,2.378072739E-1
9.418652093E0,4.748553038E-4,5.362987518E-3,3.120880127E-1
9.428692316E0,5.474835634E-4,6.368517876E-3,3.720312119E-1
9.438732537E0,5.249641836E-3,2.378261089E-2,3.888988495E-1
9.448772759E0,1.162403822E-2,3.585773706E-2,2.765073776E-1
9.458812980E0,-6.538212299E-3,3.387886286E-2,1.042337418E-1
9.468883719E0,-2.051710337E-2,2.388811111E-2,-1.112422943E-1
9.478923941E0,-1.854299009E-2,2.408540249E-2,-2.431201935E-1
9.488964162E0,6.208413094E-2,-7.377088070E-3,-1.885204315E-1
9.499004385E0,-1.666598022E-3,-2.191162109E-2,-1.653261185E-1
9.509044606E0,-4.293999076E-2,-1.212537289E-3,-5.608367920E-2
9.519115345E0,4.470735788E-3,2.146780491E-3,4.337024689E-2
9.529155567E0,1.742732525E-2,3.711080551E-2,9.255218506E-2
9.539195788E0,2.906525880E-2,2.123904228E-2,7.715129852E-2
9.549236010E0,-8.826851845E-4,3.019565344E-2,8.340644836E-2
9.559276231E0,-2.465249598E-2,-5.498826504E-4,1.304550171E-1
9.569316454E0,-1.086126268E-2,-1.364073157E-2,2.039308548E-1
9.579387192E0,-2.597790956E-2,-4.240977764E-2,2.296094894E-1
9.589427414E0,-3.852081299E-2,-6.313291192E-2,1.715841293E-1
9.599467636E0,-2.932730317E-2,-7.002165914E-2,-6.585788727E-2
9.609507857E0,3.977999091E-3,-5.563434958E-2,-2.529964447E-1
9.619548079E0,-3.651395440E-3,-3.456103802E-2,-2.821912766E-1
9.629588300E0,1.445083320E-2,-8.631646633E-4,-1.391258240E-1
9.639628523E0,1.066540182E-2,-9.728193283E-3,-8.128166199E-3
9.649699261E0,3.561451286E-2,9.259611368E-3,8.214282990E-2
9.659739483E0,2.724334598E-2,6.700783968E-3,8.386802673E-2
9.669779705E0,2.121534944E-2,3.157997131E-2,4.736614227E-2
9.679819926E0,1.511247456E-2,2.835029364E-2,1.095008850E-2
9.689860148E0,2.528843284E-2,2.690127492E-2,-2.064037323E-2
9.699900369E0,8.572548628E-3,8.563071489E-3,3.637504578E-2
9.709940591E0,2.233919501E-2,1.841932535E-2,1.700315475E-1
9.719980813E0,-2.397924662E-3,1.277893782E-3,2.678108215E-1
9.730051552E0,2.093414962E-2,-8.049219847E-3,2.722826004E-1
9.740091774E0,-8.168146014E-3,2.195939422E-3,1.762628555E-1
9.750131995E0,8.621588349E-3,1.267419755E-2,2.524280548E-2
9.760172217E0,9.389430285E-3,-7.099822164E-3,-8.023738861E-2
9.770212438E0,1.309330761E-2,-2.152113616E-2,-1.569843292E-1
9.780252660E0,-2.789403498E-2,-8.170813322E-3,-1.667060852E-1
9.790292882E0,-6.332218647E-3,-9.762331843E-3,-1.261720657E-1
9.800333103E0,1.792947948E-2,-2.175875008E-2,-7.607269287E-2
9.810403843E0,8.639276028E-3,-5.180481821E-2,3.627204895E-2
9.820444064E0,-1.952809095E-2,-6.499084085E-2,1.270895004E-1
9.830484286E0,-7.924646139E-2,-4.272022843E-2,1.844062805E-1
9.840524507E0,-7.743480802E-2,-3.640192747E-2,1.292219162E-1
9.850564729E0,-4.137603939E-2,-3.662735224E-2,5.009746552E-2
9.860604951E0,-3.034357727E-2,-1.637583971E-2,-2.662944794E-2
9.870645172E0,9.130328894E-3,-2.738139778E-2,-3.152656555E-2
9.880685394E0,3.676280379E-3,-2.577273548E-2,-1.726055145E-2
9.890725615E0,1.310653985E-2,-1.616749913E-2,2.095890045E-2
9.900765838E0,-1.041424274E-2,-2.974751219E-2,3.524875641E-2
9.910836576E0,-9.932696819E-3,-1.934754476E-2,8.785724640E-2
9.920876798E0,4.413783550E-3,-1.433679834E-2,1.213178635E-1
9.930917020E0,8.910670877E-3,-1.515848748E-2,1.140880585E-1
9.940957241E0,-1.799306273E-2,-7.564133033E-3,6.137466431E-2
9.950997463E0,1.674523950E-2,-1.518122945E-2,-2.246570587E-2
9.961037684E0,-1.110982895E-2,-6.549010053E-3,-8.475780487E-2
9.971077907E0,3.790736198E-3,-9.652702138E-3,-1.087436676E-1
9.981118128E0,1.391713321E-2,2.735257149E-4,-1.016025543E-1
9.991188867E0,7.444635034E-3,-6.503171171E-4,-2.980899811E-2
1.000122909E1,-1.031126082E-2,-5.260601640E-3,6.355381012E-2
1.001126931E1,-2.292154729E-2,-2.639612742E-2,9.707641602E-2
1.002130953E1,-9.295746684E-3,-2.203802019E-2,1.329994202E-1
1.003134975E1,3.771007061E-3,-2.594757080E-2,7.554531097E-2
1.004138998E1,1.155890524E-2,-4.721055925E-2,3.720283508E-3
1.005143020E1,3.776193410E-2,-3.098946437E-2,-4.417228699E-2
1.006147042E1,5.390173197E-2,-2.432583645E-2,-6.094074249E-2
1.007154116E1,5.546003580E-2,-7.616370916E-3,-4.658031464E-2
1.008158138E1,3.385923803E-2,4.844993353E-3,2.047443390E-2
1.009162160E1,1.021628082E-2,1.070105284E-2,8.754539490E-2
1.010166182E1,-1.073588431E-2,2.551775426E-2,1.163148880E-1
1.011170204E1,-8.780300617E-3,2.376603335E-2,8.048343658E-2
1.012174227E1,-1.356869936E-2,1.418922842E-2,2.781105042E-2
1.013178249E1,-5.288809538E-3,1.450608671E-2,-4.158496857E-2
1.014182271E1,-6.494566798E-3,4.184842110E-4,-1.229496002E-1
1.015186293E1,-1.207633317E-2,-3.263935447E-3,-1.204977036E-1
1.016193367E1,-1.255017519E-2,1.574111730E-2,-2.225589752E-2
1.017197389E1,2.325257659E-2,-4.443541169E-3,4.967975616E-2
1.018201411E1,-3.140330315E-3,-3.161457181E-2,1.240215302E-1
1.019205434E1,-3.427740932E-2,-3.348278999E-2,1.648359299E-1
1.020209456E1,-2.949847281E-2,-2.442821860E-2,1.505737305E-1
1.021213478E1,-1.594816148E-2,-2.408246696E-2,1.314916611E-1
1.022217500E1,-3.166796267E-2,-2.231083810E-2,4.535102844E-2
1.023221522E1,-3.366257250E-2,-1.206023991E-2,-2.405548096E-2
1.024225544E1,-1.681685448E-2,-1.383967698E-2,-1.126184464E-1
1.025232618E1,-9.088881314E-3,4.723161459E-3,-1.029920578E-1
1.026236640E1,1.096633822E-2,2.236104012E-2,-4.305362701E-2
1.027240662E1,1.269316673E-2,7.642164826E-3,4.325866699E-2
1.028244685E1,1.511137187E-2,-1.140460372E-2,1.343793869E-1
1.029248707E1,1.526535302E-2,-5.032256246E-3,1.345109940E-1
1.030252729E1,-1.394981891E-2,-1.669129729E-2,5.799579620E-2
1.031256751E1,-3.416127712E-2,-2.216486633E-2,-1.615047455E-2
1.032260773E1,-2.162184566E-2,-3.023408353E-2,-7.115554810E-2
1.033267847E1,2.349956334E-2,-2.777144313E-2,-4.714012146E-2
1.034271869E1,-1.258789748E-2,-3.688037395E-4,3.915405273E-2
1.035275892E1,-7.898762822E-3,-2.252821624E-2,7.997894287E-2
1.036279914E1,4.170186818E-3,-6.632789969E-3,1.064414978E-1
1.037283936E1,9.582951665E-3,3.922283649E-3,6.346702576E-2
1.038287958E1,2.232467383E-2,1.099938154E-2,2.047157288E-2
1.039291980E1,6.694592535E-3,-1.561611891E-3,-1.295566559E-2
1.040296002E1,1.761095226E-2,6.937921047E-3,-3.441715240E-2
1.041300025E1,2.946019173E-3,5.985587835E-3,-2.713775635E-2
1.042307098E1,5.437754095E-3,1.498752832E-2,7.113933563E-2
1.043311121E1,-1.495219767E-3,9.921610355E-3,9.281158447E-2
1.044315143E1,-3.709373623E-2,-9.435355663E-3,1.001243591E-1
1.045319165E1,-3.722252697E-2,-6.261169910E-4,2.840995789E-2
1.046323187E1,-1.660123467E-2,-2.297064662E-2,-5.288887024E-2
1.047327209E1,1.308704168E-2,-2.100434899E-2,-1.317873001E-1
1.048331231E1,-1.221784204E-2,-2.988457680E-2,-1.148796082E-1
1.049335254E1,-1.318037510E-2,-3.898999095E-2,-1.649761200E-2
1.050342328E1,-3.723959625E-2,-4.690888524E-2,9.151363373E-2
1.051346350E1,-1.665182412E-3,-6.025284529E-2,2.234525681E-1
1.052350372E1,5.478724837E-3,-3.626486659E-2,2.931184769E-1
1.053354394E1,2.717471868E-2,-3.104373813E-2,2.645635605E-1
1.054358416E1,3.403382748E-2,-2.328267694E-2,1.569213867E-1
1.055362438E1,2.352858335E-2,-3.184980154E-2,-1.071929932E-3
1.056366461E1,2.007364482E-2,-5.460500717E-3,-1.614913940E-1
1.057370483E1,5.283583328E-2,4.002153873E-4,-2.596254349E-1
1.058374505E1,4.506678507E-2,2.729180455E-2,-2.284049988E-1
1.059381579E1,3.748608008E-2,-1.112729311E-3,-1.157054901E-1
1.060385601E1,2.563776076E-2,2.927961946E-2,4.493427277E-2
1.061389623E1,2.820798010E-2,4.887938499E-3,1.696758270E-1
1.062393645E1,2.089601755E-2,2.037519217E-2,1.818618774E-1
1.063397668E1,2.501422167E-2,7.693171501E-3,1.149682999E-1
1.064401690E1,-2.606337517E-2,2.232661843E-2,2.647399902E-2
1.065405712E1,-2.466174215E-2,2.175778151E-2,-9.380340576E-3
1.066409734E1,-3.512456268E-2,-2.501308918E-4,2.180862427E-2
1.067416808E1,-4.056137055E-2,-5.130410194E-3,5.780410767E-2
1.068420830E1,-7.408910990E-2,-1.221948862E-2,1.345138550E-1
1.069424852E1,-7.619812340E-2,1.843690872E-3,1.800861359E-1
1.070428874E1,-4.498177767E-2,-6.175607443E-3,2.088775635E-1
1.071432896E1,-6.825156510E-3,3.945490718E-2,1.466321945E-1
1.072436919E1,9.995616972E-3,2.934062481E-2,4.605579376E-2
1.073440941E1,-8.982084692E-3,2.858200669E-2,-2.340412140E-2
1.074444963E1,-3.064423800E-2,2.375003695E-2,-4.495429993E-2
1.075448985E1,4.473082721E-3,2.026233077E-2,-8.800697327E-2
1.076453007E1,1.553709805E-2,-5.775839090E-3,-7.354545593E-2
1.077460081E1,3.819631413E-2,-2.999934554E-2,-3.986167908E-2
1.078464103E1,2.769971639E-2,-4.831883311E-2,8.237838745E-3
1.079468126E1,-1.531742513E-3,-6.816408038E-2,2.046680450E-2
1.080472148E1,-2.071093768E-2,-8.052143455E-2,1.590728760E-3
1.081476170E1,-2.556379139E-2,-6.951051950E-2,-8.434200287E-2
1.082480192E1,-9.931154549E-3,-2.826252580E-2,-1.703166962E-1
1.083484214E1,7.166035473E-3,-3.218111396E-2,-1.988220215E-1
1.084488236E1,2.123109996E-2,-6.559145451E-2,-1.721916199E-1
1.085495310E1,1.380798966E-2,-6.970468163E-2,-8.806800842E-2
1.086499332E1,1.343294978E-2,-6.436458230E-2,2.239322662E-2
1.087503355E1,2.279612795E-2,-3.430023789E-2,2.931976318E-1
1.088507377E1,-1.542106271E-3,-7.516115904E-3,4.825620651E-1
1.089511399E1,-1.555994153E-3,3.150439262E-2,5.856418610E-1
1.090515421E1,1.954637468E-3,3.657072783E-2,5.017366409E-1
1.091519443E1,1.323470473E-2,4.063290358E-2,2.524785995E-1
1.092523465E1,2.000924945E-2,5.697953701E-2,-1.362895966E-2
1.093530539E1,-6.680965424E-3,5.930754542E-2,-2.222528458E-1
1.094534562E1,-2.728305757E-3,7.836654782E-2,-2.392349243E-1
1.095538584E1,-1.086699963E-2,1.127766669E-1,-1.435394287E-1
1.096542606E1,-4.337400198E-3,1.288231015E-1,1.821517944E-4
1.097546628E1,1.930686086E-2,1.228511333E-1,6.019592285E-2
1.098550650E1,4.127385467E-2,9.582513571E-2,1.249790192E-2
1.099554672E1,5.264657736E-2,8.881512284E-2,-8.076381683E-2
1.100558694E1,2.099864557E-2,6.558668613E-2,-2.027301788E-1
1.101565768E1,8.210550994E-3,1.956650615E-2,-2.240886688E-1
1.102569791E1,-1.871601492E-2,-5.790412426E-3,-1.472101212E-1
1.103573813E1,-2.228457481E-3,-3.916934133E-2,-3.673553467E-2
1.104577835E1,-1.625664160E-2,-8.302801847E-2,3.072547913E-2
1.105581857E1,-8.700251579E-3,-1.066375077E-1,1.077070236E-1
1.106585879E1,5.737941712E-3,-1.150314510E-1,1.534919739E-1
1.107589901E1,-1.561219245E-2,-1.123990715E-1,1.897773743E-1
1.108593924E1,1.482400298E-2,-7.503345609E-2,2.713708878E-1
1.109597946E1,9.223900735E-3,-5.922129750E-2,2.474966049E-1
1.110605020E1,-3.707118705E-2,-2.876639366E-2,1.516904831E-1
1.111609042E1,-9.185370058E-3,-1.163133979E-2,5.342102051E-2
1.112613064E1,-1.236890256E-2,4.451274872E-4,-2.331447601E-2
1.113617086E1,2.018579096E-2,1.803728938E-2,-3.058052063E-2
1.114621108E1,1.672866940E-2,3.898444772E-2,7.690429688E-3
1.115625131E1,1.312882453E-2,5.901592970E-2,6.040000916E-2
1.116629153E1,1.183393970E-2,3.671166301E-2,5.089855194E-2
1.117633175E1,1.256283373E-3,6.618589163E-2,2.459526062E-2
1.118640249E1,4.089444131E-2,5.404052138E-2,-2.557659149E-2
1.119644271E1,2.333171666E-2,6.630492210E-2,8.074760437E-3
1.120648293E1,1.543413103E-2,3.197589517E-2,2.982330322E-2
1.121652315E1,4.779152572E-2,-1.372808218E-2,4.920768738E-2
1.122656337E1,-3.886380047E-2,2.289414406E-4,3.506851196E-2
1.123660360E1,-7.936818898E-2,1.569360495E-2,2.088737488E-2
1.124667433E1,2.257522196E-2,-7.312119007E-3,-5.316257477E-2
1.125671456E1,4.349377379E-2,-2.110904455E-2,-1.439867020E-1
1.126675478E1,1.240938902E-2,-1.798099279E-2,-1.462144852E-1
1.127679500E1,-2.034645528E-3,-4.962712526E-2,-1.675319672E-1
1.128683522E1,1.180693507E-4,-3.810137510E-2,-7.871246338E-2
1.129687544E1,-7.419895381E-3,-6.398624182E-2,6.283092499E-2
1.130694618E1,-9.501501918E-4,-2.894723415E-2,1.636009216E-1
1.131698640E1,2.760596573E-3,-4.821985960E-2,1.948480606E-1
1.132702662E1,-1.274907961E-2,-4.492211342E-2,1.661624908E-1
1.133706685E1,-1.844244450E-2,-3.076350689E-2,1.517829895E-1
1.134710707E1,4.913866520E-3,3.242462873E-2,1.062088013E-1
1.135714729E1,-1.383721828E-4,5.174821615E-2,7.017135620E-2
1.136718751E1,1.371589676E-2,4.953104258E-2,5.807495117E-2
1.137725825E1,-2.960085496E-2,8.043065667E-2,9.863185883E-2
1.138729847E1,-4.909841716E-2,5.948352814E-2,7.459068298E-2
1.139733869E1,-2.847821638E-2,3.928864002E-2,4.579925537E-2
1.140737892E1,-1.977173612E-2,5.738037825E-2,1.700687408E-2
1.141741914E1,-3.002726287E-2,4.285830259E-2,2.178478241E-2
1.142745936E1,-4.007318616E-2,2.448642254E-2,2.182579041E-2
1.143749958E1,-2.865076065E-2,2.095508575E-2,2.907371521E-2
1.144753980E1,-1.526372507E-2,2.005785704E-2,7.224845886E-2
1.145758002E1,-1.611105353E-2,-9.069561958E-3,7.714366913E-2
1.146765076E1,3.267675638E-4,-2.831977606E-2,9.881687164E-2
1.147769098E1,3.188778087E-2,-3.557789326E-2,3.669834137E-2
1.148773121E1,4.156220704E-3,-4.329907894E-2,-4.220390320E-2
1.149777143E1,-2.590765059E-2,-6.021410227E-2,-1.091127396E-1
1.150781165E1,-2.841268852E-2,-6.146031618E-2,-1.856622696E-1
1.151785187E1,1.999177039E-3,-3.279674053E-2,-1.975059509E-1
1.152789209E1,3.393140435E-2,-3.624504805E-2,-1.015329361E-1
1.153793231E1,5.982736498E-2,-5.005782843E-2,5.677986145E-2
1.154800305E1,2.449125797E-2,-7.390916348E-2,1.863422394E-1
1.155804328E1,5.877411738E-2,-5.361706018E-2,2.487907410E-1
1.156808350E1,9.143573791E-2,-3.044253588E-2,1.459321976E-1
1.157812372E1,6.365609169E-2,-1.116961241E-2,3.340816498E-2
1.158816394E1,3.955153376E-2,2.850973606E-2,-3.369045258E-2
1.159820416E1,5.858959258E-2,4.946148396E-2,-3.133106232E-2
1.160824438E1,2.712480165E-2,4.684996605E-2,3.330039978E-2
1.161831512E1,-2.069797553E-2,4.559636116E-3,1.171436310E-1
1.162835534E1,-2.071351744E-2,-4.001718760E-2,9.325408936E-2
1.163839557E1,-1.853368990E-2,-5.337584019E-2,7.894802094E-2
1.164843579E1,-3.083616123E-2,-3.577750921E-2,5.265998840E-2
1.165847601E1,-2.650544606E-2,-2.079933882E-2,1.678085327E-2
1.166851623E1,-1.245264895E-2,6.257832050E-3,-8.612823486E-2
1.167855645E1,-5.387026817E-3,3.586637974E-2,-1.363554001E-1
1.168862719E1,4.066646099E-3,4.214477539E-2,-1.266908646E-1
1.169866741E1,8.423269726E-3,4.896199703E-2,-4.277610779E-2
1.170870763E1,5.615737289E-3,5.845904350E-2,6.988811493E-2
1.171874786E1,2.243519016E-2,2.848261595E-2,1.682615280E-1
1.172878808E1,-3.981765732E-2,-3.535747528E-4,2.282533646E-1
1.173882830E1,-8.549781889E-2,-5.230724812E-2,2.570257187E-1
1.174889904E1,-8.402284980E-2,-7.075041533E-2,1.732749939E-1
1.175893926E1,-2.682163380E-2,-5.323171616E-2,5.581855774E-3
1.176897948E1,4.235569388E-3,-1.972734928E-2,-7.835960388E-2
1.177901970E1,-1.713212579E-2,-1.398563385E-2,-9.999179840E-2
1.178905992E1,-3.836120293E-2,3.118133545E-2,-2.339649200E-2
1.179910015E1,-6.430739164E-2,3.879868984E-2,6.761074066E-2
1.180914037E1,-5.899722129E-2,3.032082319E-2,3.655338287E-2
1.181921111E1,-3.769432753E-2,1.007354259E-2,-4.956150055E-2
1.182925133E1,-4.039221257E-2,2.318143845E-2,-1.141386032E-1
1.183929155E1,1.980837435E-3,1.800274849E-2,-1.140203476E-1
1.184933177E1,3.011347912E-2,4.442572594E-3,-8.988666534E-2
1.185937199E1,3.205490485E-2,-4.112488031E-2,-3.410339355E-3
1.186941222E1,1.507044211E-2,-7.607263327E-2,5.679607391E-2
1.187945244E1,-9.013399482E-3,-8.690589666E-2,2.030601501E-1
1.188952318E1,-2.849045396E-2,-8.976662159E-2,2.750043869E-1
1.189956340E1,-1.683820970E-2,-7.540076971E-2,2.366962433E-1
1.190960362E1,-2.401125617E-2,-6.743961573E-2,8.815670013E-2
1.191964384E1,-3.350894898E-2,-4.259812832E-2,-4.137134552E-2
1.192968406E1,-4.319758713E-2,-1.335281134E-2,-6.317996979E-2
1.193972428E1,-4.631187767E-4,7.239699364E-3,-2.747249603E-2
1.194979502E1,3.742367402E-2,3.127557039E-2,-3.240108490E-2
1.195983524E1,4.654413834E-2,4.673087597E-2,-1.474018097E-1
1.196987547E1,3.622565418E-2,7.330095768E-2,-1.426010132E-1
1.197991569E1,1.838072948E-2,8.886897564E-2,-6.352138519E-2
1.198995591E1,-1.602320373E-2,8.628290892E-2,4.913806915E-2
1.199999613E1,-3.595361859E-2,3.721249104E-2,2.073726654E-1
1.201003635E1,-3.619375825E-2,-1.706647873E-2,2.961521149E-1
1.202007658E1,-4.087349027E-2,-9.427928925E-2,2.148599625E-1
1.203014731E1,2.642180026E-2,-8.847332001E-2,5.451202393E-2
1.204018754E1,9.692727029E-2,-8.296638727E-2,-1.562795639E-1
1.205022776E1,5.030407012E-2,-5.849677324E-2,-2.186403275E-1
1.206026798E1,1.773843355E-2,-1.636028290E-3,-8.220577240E-2
1.207030820E1,-7.935408503E-3,2.021294832E-2,9.977340698E-2
1.208034842E1,-1.976838149E-2,-1.085251570E-2,1.835737228E-1
1.209038864E1,-3.932139277E-2,-4.778993130E-2,1.452035904E-1
1.210042887E1,-3.951635584E-2,-3.963643312E-2,8.526134491E-2
1.211046909E1,1.195091754E-2,-2.487188578E-2,2.767562866E-2
1.212053983E1,7.639930397E-2,-2.584695816E-2,-1.308917999E-2
1.213058005E1,9.130829573E-2,-2.747720480E-2,-2.741146088E-2
1.214062027E1,2.509722859E-2,1.623195410E-2,-3.934383392E-2
1.215066049E1,-5.578342825E-3,5.733054876E-2,2.771949768E-2
1.216070071E1,-2.037608065E-2,6.487345695E-2,8.520126343E-2
1.217074093E1,-9.274932556E-3,5.594050884E-2,8.045101166E-2
1.218078116E1,1.848870888E-3,-1.220130920E-2,1.827907562E-2
1.219082138E1,-3.614827618E-2,-6.484651566E-2,-1.748561859E-2
1.220089212E1,-5.208221450E-2,-5.061638355E-2,-1.973915100E-2
1.221093234E1,-3.212508559E-2,-6.179183722E-2,-2.911758423E-2
1.222097256E1,1.391189173E-2,-5.853122473E-2,-1.840591431E-4
1.223101278E1,1.436886936E-2,-4.168373346E-2,9.334659576E-2
1.224105300E1,-3.762557730E-2,-4.916471243E-2,1.509389877E-1
1.225109322E1,-8.168003708E-2,-3.868818283E-2,1.462106705E-1
1.226113345E1,-1.513622329E-2,-2.545917034E-2,4.318618774E-2
1.227120419E1,-3.416176140E-2,6.191581488E-2,-8.872032166E-2
1.228124441E1,-3.693481535E-2,8.052271605E-2,-1.296043396E-1
1.229128463E1,-2.487390302E-2,1.098614931E-1,-4.846000671E-2
1.230132485E1,-6.575828418E-3,8.842480183E-2,3.280067444E-2
1.231136507E1,2.579937130E-2,6.290823221E-2,5.664443970E-2
1.232140529E1,1.311399043E-2,2.814924717E-2,3.501987457E-2
1.233144552E1,3.135048971E-2,2.694195509E-2,-1.054573059E-2
1.234151626E1,3.296571597E-2,5.437397957E-2,-3.217411041E-2
1.235155648E1,5.111445487E-2,5.143874884E-2,5.158901215E-2
1.236159670E1,1.517872326E-2,5.929082632E-2,9.472560883E-2
1.237163692E1,1.378456969E-2,1.831495762E-2,7.570266724E-2
1.238167714E1,1.966524869E-2,7.738828659E-3,-1.519012451E-2
1.239171736E1,5.061335862E-2,-1.222532988E-2,-9.410285950E-2
1.240175758E1,7.961493731E-2,-4.036450386E-2,-1.082868576E-1
1.241179781E1,4.245014861E-2,-7.423275709E-2,-4.815769196E-2
1.242186855E1,-5.458987318E-3,-6.075078249E-2,6.700706482E-2
1.243190877E1,-5.717986450E-2,-5.953866243E-2,1.318778992E-1
1.244194899E1,-4.942931607E-2,-6.194818020E-2,1.009035110E-1
1.245198921E1,-1.973523758E-3,-8.846288919E-2,-1.148414612E-2
1.246202943E1,3.049710579E-2,-8.517831564E-2,-1.048030853E-1
1.247206965E1,1.356088929E-2,-4.095292091E-2,-1.288251877E-1
1.248214039E1,-8.168593049E-4,-9.969651699E-3,-4.024887085E-2
1.249218062E1,-3.130335733E-2,4.762381315E-2,6.989383698E-2
1.250222084E1,-8.187001944E-2,4.290485382E-2,1.273622513E-1
1.251226106E1,-9.432269633E-2,5.440533161E-3,2.231826782E-1
1.252230128E1,-5.695777759E-2,-3.280711174E-2,2.710685730E-1
1.253237202E1,-1.460487861E-2,-4.070144892E-2,2.758111954E-1
1.254241224E1,-9.469308890E-3,-3.799074888E-2,1.152687073E-1
1.255245246E1,1.041440852E-2,-9.997069836E-3,-1.602611542E-1
1.256249268E1,8.865552954E-3,5.440717936E-2,-3.447771072E-1
1.257253291E1,1.181294955E-2,8.223414421E-2,-3.184976578E-1
1.258260364E1,4.572080448E-2,1.174877882E-1,-7.418060303E-2
1.259264387E1,1.966325752E-2,9.955179691E-2,2.325057983E-1
1.260268409E1,-1.125093736E-2,2.665829659E-2,3.428745270E-1
1.261272431E1,-6.384404004E-2,-2.863562107E-2,2.352724075E-1
1.262276453E1,-6.011379510E-2,-6.119680405E-2,1.491355896E-2
1.263280475E1,-1.364426222E-2,-6.618064642E-2,-1.791830063E-1
1.264287549E1,3.086975217E-2,-3.212380409E-2,-2.032432556E-1
1.265291571E1,9.058210999E-2,-1.285028458E-2,-1.242275238E-1
1.266295594E1,1.155798212E-1,1.274758577E-2,-1.159763336E-2
1.267299616E1,1.475702375E-1,-3.877639771E-3,9.869766235E-2
1.268303638E1,6.911918521E-2,-8.846342564E-3,1.515121460E-1
1.269310712E1,-1.191475149E-2,-1.587867737E-4,1.611852646E-1
1.270314734E1,-5.163713545E-2,-2.581894398E-3,1.061172485E-1
1.271318756E1,-6.252545863E-2,-1.072305441E-2,5.338573456E-2
1.272322778E1,-9.550513327E-2,-3.723502159E-4,7.796287537E-3
1.273326800E1,-8.867123723E-2,7.530808449E-3,-5.216121674E-2
1.274333874E1,-5.248643458E-2,3.466898203E-2,-6.902027130E-2
1.275337897E1,8.632319048E-3,3.876703978E-2,3.662109375E-4
1.276341919E1,1.951581612E-2,3.409141302E-2,1.152925491E-1
1.277345941E1,3.266007081E-2,5.549520254E-2,1.703481674E-1
1.278349963E1,-1.617294736E-3,5.938911438E-2,1.080417633E-1
1.279353985E1,7.130893413E-3,6.481987238E-2,2.413272858E-2
1.280361059E1,2.313793078E-2,5.125558376E-2,-3.342914581E-2
1.281365081E1,-5.917849950E-3,-1.376950741E-2,-8.133792877E-2
1.282369103E1,2.729449794E-2,-3.440666199E-2,-1.171941757E-1
1.283373126E1,3.931389004E-2,-3.464603424E-2,-1.266355515E-1
1.284377148E1,2.098680288E-2,-5.956554413E-2,-4.499053955E-2
1.285381170E1,1.982867718E-2,-2.746933699E-2,7.972431183E-2
1.286385192E1,9.120669216E-3,-2.220135927E-2,2.139844894E-1
1.287392266E1,-1.648687571E-2,-2.165818214E-2,2.690868378E-1
1.288396288E1,1.256142091E-2,-6.458163261E-3,1.756143570E-1
1.289400310E1,5.588933825E-3,2.262532711E-3,2.696704865E-2
1.290404332E1,-1.610512286E-2,2.249503136E-2,-1.288919449E-1
1.291408354E1,-2.894183993E-2,3.163683414E-2,-1.314659119E-1
1.292412377E1,-2.303103544E-2,6.647306681E-2,-5.492115021E-2
1.293419451E1,2.318296582E-2,6.387996674E-2,5.280303955E-2
1.294423473E1,7.583568804E-3,1.743179560E-2,1.295061111E-1
1.295427495E1,-7.729822770E-3,9.239554405E-3,1.248035431E-1
1.296431517E1,4.625207558E-2,3.354454041E-2,2.187538147E-2
1.297435539E1,4.783083871E-2,4.325759411E-2,-1.097984314E-1
1.298439561E1,9.254621342E-3,3.182446957E-2,-1.169481277E-1
1.299443584E1,1.793819945E-3,-4.301071167E-4,-1.631164551E-2
1.300450658E1,-2.464690991E-2,-1.772880554E-2,1.873130798E-1
1.301454680E1,-2.954424359E-2,-6.707251072E-3,2.257127762E-1
1.302458702E1,-3.433265164E-2,-4.232025146E-2,1.132040024E-1
1.303462724E1,-2.416907251E-2,-7.058268785E-2,-1.859951019E-2
1.304466746E1,1.016480848E-2,-3.718286753E-2,-1.456499100E-1
1.305470768E1,4.462417588E-2,1.893401146E-3,-1.289930344E-1
1.306477842E1,1.638505235E-2,1.116436720E-2,1.224613190E-2
1.307481864E1,4.583272617E-3,-7.146179676E-3,1.056737900E-1
1.308485887E1,9.240254760E-3,-2.282476425E-2,1.344718933E-1
1.309489909E1,1.378661580E-2,-4.331612587E-2,3.637695312E-2
1.310493931E1,-5.172671750E-3,-4.515868425E-2,-1.096343994E-1
1.311497953E1,2.310967073E-3,-1.888281107E-2,-1.814641953E-1
1.312505027E1,2.391483262E-2,-3.799438477E-3,-1.694478989E-1
1.313509049E1,-2.400781959E-3,-2.347588539E-2,-1.070785522E-1
1.314513071E1,2.567695454E-3,2.627074718E-3,-3.511524200E-2
1.315517093E1,-1.731810160E-3,-1.194548607E-2,3.445720673E-2
1.316521116E1,5.873513874E-3,-1.050937176E-2,9.201049805E-2
1.317528190E1,1.292839181E-2,-1.738846302E-2,7.048320770E-2
1.318532212E1,1.728701591E-2,-3.469556570E-2,3.214073181E-2
1.319536234E1,7.593533024E-3,-2.664798498E-2,-1.105499268E-2
1.320540256E1,-3.475801647E-2,-2.798658609E-2,2.477359772E-2
1.321544278E1,-1.698857546E-2,-1.724821329E-2,4.145622253E-2
1.322551352E1,9.791292250E-4,-1.108300686E-2,4.139328003E-2
1.323555374E1,-1.413451135E-2,-7.057189941E-5,-1.852035522E-2
1.324559396E1,-2.689594962E-2,8.513391018E-3,-6.646442413E-2
1.325563419E1,-3.294817358E-2,1.713162661E-2,-7.849502563E-2
1.326567441E1,-2.481987327E-2,4.717928171E-2,-3.546524048E-2
1.327571463E1,-3.353922814E-2,2.033835649E-2,3.872585297E-2
1.328578537E1,-2.090114355E-2,-1.696884632E-3,4.348468781E-2
1.329582559E1,-2.523676306E-2,-1.695126295E-2,1.948738098E-2
1.330586581E1,-1.070999540E-2,-3.017908335E-2,-2.129268646E-2
1.331590603E1,-3.359384835E-3,-5.016887188E-2,-8.119964600E-2
1.332594626E1,4.069697112E-3,-3.443783522E-2,-1.291484833E-1
1.333598648E1,1.433344930E-2,-2.789962292E-2,-1.579170227E-1
1.334605722E1,-3.374610096E-3,-2.803540230E-2,-1.315860748E-1
1.335609744E1,2.676774934E-2,-1.312625408E-2,-1.243658066E-1
1.336613766E1,5.405452847E-2,1.137959957E-2,-7.883834839E-2
1.337617788E1,4.076318443E-2,-6.993949413E-3,1.151447296E-1
1.338621810E1,3.596775234E-3,-3.985464573E-2,2.660245895E-1
1.339625832E1,-4.772039130E-3,-4.027622938E-2,3.162794113E-1
1.340629855E1,-5.958065391E-3,-4.027640820E-2,2.275485992E-1
1.341636928E1,-1.466936246E-2,-4.036653042E-2,6.978988647E-3
1.342640951E1,-2.153324708E-2,-8.363544941E-3,-2.088871002E-1
1.343644973E1,-1.969893649E-2,2.699273825E-2,-3.672342300E-1
1.344648995E1,3.340931609E-3,8.857107162E-2,-3.123559952E-1
1.345653017E1,7.532663643E-3,8.826649189E-2,-1.112632751E-1
1.346660091E1,4.836661369E-2,1.017898321E-1,1.282510757E-1
1.347664113E1,5.861525610E-2,8.940809965E-2,3.869476318E-1
1.348668135E1,4.516011849E-2,5.869984627E-2,4.564075470E-1
1.349672158E1,4.115300626E-2,4.934602976E-2,3.892412186E-1
1.350676180E1,-4.117392004E-3,1.792019606E-2,2.141561508E-1
1.351683254E1,-2.600488812E-2,1.087290049E-2,-8.554267883E-2
1.352687276E1,-2.198046446E-2,8.537411690E-3,-2.631378174E-1
1.353691298E1,-2.724361792E-2,1.556956768E-2,-3.639850616E-1
1.354695320E1,-1.478525624E-2,6.525218487E-3,-3.329668045E-1
1.355699342E1,1.061272621E-2,2.957803011E-2,-1.868276596E-1
1.356703364E1,-1.583949104E-2,-6.993234158E-3,-4.532051086E-2
1.357710438E1,-1.589205861E-2,-3.030306101E-2,1.010551453E-1
1.358714460E1,2.636164427E-4,-3.920382261E-2,2.019443512E-1
1.359718483E1,-7.871530950E-3,-3.474736214E-2,2.524957657E-1
1.360722505E1,5.479734391E-3,-4.983109236E-2,2.095079422E-1
1.361726527E1,3.281258792E-2,-5.471926928E-2,9.697914124E-2
1.362733601E1,1.937414333E-2,-4.222017527E-2,1.101493835E-3
1.363737623E1,7.802959532E-3,-5.259269476E-2,-7.330799103E-2
1.364741645E1,-1.131213829E-2,-2.010023594E-2,-1.357612610E-1
1.365745667E1,-1.613554731E-2,1.518106461E-2,-1.407289505E-1
1.366749690E1,-1.129594073E-2,3.439748287E-2,-9.537696838E-2
1.367753712E1,-2.070070803E-2,2.355629206E-2,4.101848602E-2
1.368757734E1,-2.990073338E-2,3.756088018E-2,2.038040161E-1
1.369764808E1,-1.742312685E-2,4.874694347E-2,3.306541443E-1
1.370768830E1,-2.404420823E-2,4.909801483E-2,3.496904373E-1
1.371772852E1,-1.851200312E-2,4.536217451E-2,2.728614807E-1
1.372776874E1,-1.491003111E-2,5.567771196E-2,1.288423538E-1
1.373780897E1,2.454844117E-2,6.377834082E-2,-4.389286041E-2
1.374784919E1,-4.605352879E-4,3.636270761E-2,-2.333593369E-1
1.375788941E1,8.117578924E-3,7.266607881E-2,-3.030309677E-1
1.376796015E1,1.172921807E-2,6.482291222E-2,-3.174257278E-1
1.377800037E1,3.658903763E-2,5.211472511E-2,-2.694435120E-1
1.378804059E1,2.064775676E-2,2.472198009E-2,-1.590967178E-1
1.379808081E1,2.853381447E-2,-1.226842403E-3,-3.430175781E-2
1.380812103E1,5.051884800E-3,-2.235907316E-2,8.331489563E-2
1.381816126E1,-1.381571963E-2,-5.400055647E-2,2.176380157E-1
1.382823199E1,-3.029059619E-2,-8.979821205E-2,3.135528564E-1
1.383827222E1,-3.977567703E-2,-1.041665077E-1,3.470716476E-1
1.384831244E1,-2.018482983E-2,-9.799820185E-2,2.582921982E-1
1.385835266E1,-1.923415065E-2,-6.327760220E-2,9.514904022E-2
1.386839288E1,-1.569571346E-2,-3.484869003E-2,-6.089210510E-2
1.387843310E1,1.202924177E-2,-8.437812328E-3,-1.474733353E-1
1.388847332E1,1.083245873E-2,-1.167148352E-2,-1.118640900E-1
1.389851354E1,7.050063461E-3,1.592969894E-2,-3.543567657E-2
1.390858429E1,-1.672416925E-3,4.481613636E-2,4.345607758E-2
1.391862451E1,-5.805633962E-3,5.557572842E-2,8.170223236E-2
1.392866473E1,-2.455481887E-2,5.475991964E-2,9.842014313E-2
1.393870495E1,-2.670831233E-2,6.800034642E-2,8.399581909E-2
1.394874517E1,-1.194841415E-2,6.923553348E-2,2.886867523E-2
1.395878539E1,3.205046058E-3,6.382051110E-2,-1.904296875E-2
1.396882561E1,2.605234459E-2,4.475772381E-2,-7.648944855E-2
1.397886584E1,5.589324981E-2,2.610754967E-2,-9.560871124E-2
1.398893658E1,4.772369564E-2,5.889475346E-3,-4.524898529E-2
1.399897680E1,5.088621378E-2,-3.960180283E-2,-2.017974854E-3
1.400901702E1,3.752522171E-3,-3.815162182E-2,7.707595825E-2
1.401905724E1,-2.245856822E-2,-6.600064039E-2,1.297969818E-1
1.402909746E1,-7.894381881E-2,-5.905604362E-2,1.489458084E-1
1.403913768E1,-5.285152793E-2,-5.629491806E-2,1.248912811E-1
1.404917791E1,-3.199043870E-2,-1.772731543E-2,1.211261749E-2
1.405921813E1,1.542261615E-2,-6.249070168E-3,-9.591293335E-2
1.406925835E1,4.669881240E-2,1.032453775E-2,-1.273012161E-1
1.407932909E1,5.178508162E-2,3.462481499E-2,-1.275320053E-1
1.408936931E1,5.712592602E-2,3.859874606E-2,-5.587005615E-2
1.409940953E1,2.678704262E-2,5.607113242E-2,-2.482604980E-2
1.410944975E1,-1.321732998E-2,2.179360390E-2,-9.183883667E-4
1.411948998E1,-2.966515720E-2,3.051573038E-2,3.829002380E-3
1.412953020E1,-1.323645562E-2,3.232201934E-2,8.584022522E-3
1.413957042E1,-1.127775759E-2,1.044297218E-2,3.011131287E-2
1.414961064E1,-1.367054880E-2,2.998590469E-3,9.952926636E-2
1.415965086E1,3.605060279E-3,-1.975655556E-3,1.378307343E-1
1.416972160E1,1.185195893E-2,-4.857480526E-3,1.330261230E-1
1.417976182E1,1.215696335E-3,-1.408994198E-2,1.065950394E-1
1.418980204E1,-2.118217200E-2,1.408016682E-2,7.772541046E-2
1.419984227E1,-1.517160982E-2,-1.511812210E-3,4.882049561E-2
1.420988249E1,-3.065185249E-2,1.342076063E-2,2.707004547E-2
1.421992271E1,-1.294633746E-2,-1.702761650E-2,-2.819442749E-2
1.422996293E1,3.550956398E-2,-7.099956274E-3,-9.544849396E-2
1.424003367E1,5.690005794E-2,-8.846372366E-3,-7.649898529E-2
1.425007389E1,1.879426092E-2,-7.604807615E-3,-1.681518555E-2
1.426011411E1,-1.774525642E-2,-1.743033528E-2,1.027622223E-1
1.427015433E1,-3.231028467E-2,-1.324486732E-2,1.050100327E-1
1.428019456E1,-1.050586998E-2,-3.343486786E-2,-4.838085175E-2
1.429023478E1,-2.812832594E-3,-1.123690605E-2,-2.018022537E-1
1.430027500E1,-2.648545802E-2,-5.160421133E-3,-3.360404968E-1
1.431031522E1,-1.670651138E-2,1.009759307E-2,-2.547054291E-1
1.432038596E1,-9.441085160E-3,1.661598682E-3,-5.593299866E-2
1.433042618E1,7.577583194E-3,-9.772419930E-3,2.865781784E-1
1.434046640E1,1.568403840E-2,-1.454833150E-2,4.710531235E-1
1.435050662E1,9.900256991E-3,-2.490925789E-2,5.356721878E-1
1.436054685E1,9.145118296E-3,-4.426407814E-2,4.157419205E-1
1.437058707E1,1.087009907E-3,-2.239492536E-2,1.687231064E-1
1.438062729E1,-2.193193883E-2,-3.175619245E-2,-5.206584930E-2
1.439066751E1,-1.209178567E-2,-3.220140934E-3,-2.728652954E-1
1.440070773E1,7.027402520E-3,1.974570751E-2,-3.379621506E-1
1.441074795E1,6.693094969E-3,3.176468611E-2,-3.047456741E-1
1.442078818E1,2.311838418E-2,3.264588118E-2,-1.707372665E-1
1.443082840E1,2.056932449E-2,2.659609914E-2,-2.464485168E-2
1.444089914E1,1.598939300E-2,4.938364029E-3,1.095275879E-1
1.445093936E1,2.062447369E-3,6.977617741E-3,1.551074982E-1
1.446097958E1,9.921200573E-3,7.995724678E-3,1.360025406E-1
1.447101980E1,1.790942252E-2,-1.144406199E-2,1.096620560E-1
1.448106002E1,2.834655344E-2,-5.886793137E-3,1.167850494E-1
1.449110024E1,1.479044557E-2,-6.065130234E-3,9.753036499E-2
1.450114047E1,2.712090313E-2,-1.674455404E-2,6.865978241E-2
1.451118069E1,-8.622221649E-3,2.946168184E-3,3.496742249E-2
1.452122091E1,-1.546078175E-2,1.771923900E-2,-7.294654846E-2
1.453126113E1,-2.920147032E-2,4.194223881E-2,-8.988189697E-2
1.454133187E1,4.794411361E-3,5.273303390E-2,-1.043844223E-1
1.455137209E1,1.018818468E-2,4.996314645E-2,-4.702663422E-2
1.456141231E1,-5.756072700E-3,4.349192977E-2,4.150104523E-2
1.457145254E1,-4.710204899E-3,9.201735258E-3,8.457756042E-2
1.458149276E1,1.545426250E-2,2.268674970E-2,1.013126373E-1
1.459153298E1,9.401731193E-3,3.917452693E-2,9.403705597E-2
1.460157320E1,-1.719608903E-3,3.805235028E-2,3.884410858E-2
1.461161342E1,-6.249293685E-3,1.749271154E-2,-6.787300110E-3
1.462165364E1,-1.118882746E-2,1.108542085E-2,-2.609443665E-2
1.463172438E1,1.006950438E-2,7.167398930E-3,-2.624320984E-2
1.464176460E1,1.715977490E-2,-3.617435694E-3,2.629470825E-2
1.465180483E1,-1.814179122E-3,-1.411408186E-2,2.138614655E-2
1.466184505E1,1.289370656E-2,-3.403708339E-2,3.803634644E-2
1.467188527E1,6.382085383E-3,-2.562692761E-2,7.382774353E-2
1.468192549E1,-4.714004695E-3,-2.225396037E-2,7.609558105E-2
1.469196571E1,2.236354351E-2,-1.439240575E-2,6.638240814E-2
1.470200593E1,1.776508987E-3,-2.369424701E-2,5.426406860E-2
1.471207667E1,7.556006312E-3,-1.412662864E-2,2.059173584E-2
1.472211690E1,1.563292742E-2,-7.304728031E-3,-1.548576355E-2
1.473215712E1,1.416909695E-2,-1.939478517E-2,-5.155086517E-2
1.474219734E1,1.019493490E-2,-7.296890020E-3,-5.648326874E-2
1.475223756E1,8.516274393E-3,-3.899186850E-3,-3.983783722E-2
1.476227778E1,3.273876756E-2,2.376621962E-2,-1.360797882E-2
1.477231800E1,1.175221056E-2,2.080386877E-2,5.457878113E-3
1.478235823E1,1.958955079E-2,3.711551428E-3,-1.803398132E-3
1.479239845E1,5.904383957E-3,1.050060987E-2,3.403186798E-2
1.480243867E1,1.359719038E-2,-1.393124461E-2,6.028461456E-2
1.481250941E1,1.391622424E-2,-1.946151257E-2,1.008939743E-1
1.482254963E1,4.260949045E-2,-1.588517427E-2,1.582460403E-1
1.483258985E1,4.513306916E-2,-2.073228359E-2,1.604986191E-1
1.484263007E1,5.937888473E-2,-2.641096711E-2,1.172361374E-1
1.485267029E1,4.310417175E-2,-1.409861445E-2,6.197929382E-2
1.486271052E1,3.426760435E-2,-1.680213213E-2,9.108543396E-3
1.487275074E1,1.838915050E-2,-2.725154161E-3,-2.220821381E-2
1.488279096E1,9.488664567E-3,1.169970632E-2,-3.914546967E-2
1.489286170E1,-3.267096728E-2,1.969325542E-2,-2.253818512E-2
1.490290192E1,-2.231720090E-2,1.890248060E-2,-5.908012390E-3
1.491294214E1,-7.678799331E-3,1.432529092E-2,3.560066223E-3
1.492298236E1,-1.945181191E-2,1.722741127E-2,-1.090621948E-2
1.493302258E1,-4.519720376E-2,8.387207985E-3,-4.451274872E-2
1.494306281E1,-1.381876320E-2,1.416373253E-2,-8.051109314E-2
1.495310303E1,-2.512618154E-2,2.286052704E-2,-1.354026794E-2
1.496314325E1,-2.450886369E-2,1.783065498E-2,8.457088470E-2
1.497321399E1,-1.911162585E-2,-1.397550106E-3,1.683206558E-1
1.498325421E1,-1.391442120E-2,7.395848632E-3,1.538915634E-1
1.499329443E1,-5.098017305E-2,-9.458780289E-3,8.197593689E-2
1.500333465E1,-3.556060046E-2,1.582556963E-2,4.355907440E-2
1.501337488E1,-1.812535524E-2,1.692561805E-2,2.429008484E-2
1.502341510E1,-1.553182304E-2,1.489400864E-3,-4.046630859E-2
1.503345532E1,-2.264807373E-2,-1.343274117E-2,-1.123943329E-1
1.504349554E1,8.170455694E-4,-3.956779838E-3,-1.412220001E-1
1.505353576E1,1.934569329E-2,-3.735870123E-4,-2.431869507E-3
1.506360650E1,-1.728897542E-2,-2.365499735E-3,1.675119400E-1
1.507364672E1,-4.913298041E-2,-8.832469583E-3,2.345113754E-1
1.508368694E1,-4.219164699E-2,-1.514717937E-2,1.650066376E-1
1.509372717E1,-1.549157500E-2,-3.756134212E-2,-3.380298615E-2
1.510376739E1,2.611659467E-2,-3.468114138E-2,-2.062835693E-1
1.511380761E1,4.413685948E-2,-2.876673639E-2,-2.877655029E-1
1.512384783E1,5.510006100E-2,-3.741468489E-2,-2.207698822E-1
1.513388805E1,5.138631165E-2,-2.179053426E-2,6.653213501E-2
1.514395879E1,7.371016592E-2,-2.578783035E-2,3.466749191E-1
1.515399901E1,7.890655100E-2,-1.817551255E-2,4.640026093E-1
1.516403924E1,5.255517364E-2,-1.304897666E-2,4.352064133E-1
1.517407946E1,4.511678964E-2,9.550437331E-3,2.219991684E-1
1.518411968E1,3.528922796E-2,2.658827603E-2,1.115226746E-2
1.519415990E1,3.794938326E-3,3.298239410E-2,-1.254720688E-1
1.520420012E1,1.031830907E-3,2.559451759E-2,-1.710948944E-1
1.521427086E1,-4.470346868E-2,1.307542622E-2,-1.855583191E-1
1.522431108E1,-4.259100556E-2,1.729559153E-2,-1.473207474E-1
1.523435130E1,-2.858844399E-2,-4.596889019E-3,-8.511638641E-2
1.524439153E1,-1.461476088E-2,5.011439323E-3,-1.810169220E-2
1.525443175E1,-1.022845507E-2,1.072925329E-2,4.652690887E-2
1.526447197E1,-8.942186832E-4,2.282157540E-3,4.172611237E-2
1.527451219E1,8.724831045E-3,1.058399305E-2,3.692913055E-2
1.528455241E1,8.964017034E-3,-3.161355853E-4,4.650020599E-2
1.529459263E1,-1.680320501E-2,-1.689076424E-3,8.240985870E-2
1.530463286E1,-1.847122610E-2,-2.483206242E-2,1.111392975E-1
1.531470359E1,-2.482591569E-2,-5.260678008E-2,1.183233261E-1
1.532474382E1,-5.697344244E-2,-3.166220337E-2,7.762050629E-2
1.533478404E1,-2.057062089E-2,-2.387005463E-2,-2.534866333E-2
1.534482426E1,1.093902439E-2,-1.397317648E-2,-1.235284805E-1
1.535486448E1,-2.221651375E-2,1.333709806E-3,-1.426963806E-1
1.536490470E1,-1.453389227E-2,-6.207942963E-3,-1.235494614E-1
1.537494492E1,4.483044147E-3,1.377545856E-2,2.488231659E-2
1.538498515E1,1.376087219E-2,5.800727755E-3,1.350078583E-1
1.539505589E1,2.010554075E-2,9.565141052E-3,1.972417831E-1
1.540509611E1,3.602088988E-2,2.539937943E-2,1.493339539E-1
1.541513633E1,1.874040067E-2,2.243993618E-2,6.311702728E-2
1.542517655E1,2.805923671E-2,2.329960465E-2,-2.788448334E-2
1.543521677E1,-7.322132587E-4,2.389295772E-2,-7.817935944E-2
1.544525699E1,-1.028977334E-2,5.705708172E-3,-9.015941620E-2
1.545529721E1,-1.272229850E-2,7.426561788E-3,-3.509902954E-2
1.546533744E1,-1.489229500E-2,1.459608972E-2,4.391002655E-2
1.547537766E1,4.501134157E-3,5.314661190E-3,1.133451462E-1
1.548544840E1,-1.205699146E-2,2.517780289E-3,1.372919083E-1
1.549548862E1,2.188354731E-3,3.525436856E-3,1.301136017E-1
1.550552884E1,8.793689311E-3,1.067647710E-2,8.941841125E-2
1.551556678E1,2.459173650E-2,4.616715014E-4,5.111789703E-2
1.552560700E1,2.829572558E-2,2.059124410E-3,1.521682739E-2
1.553564722E1,3.373280168E-3,-2.223246731E-2,-1.588916779E-2
1.554571796E1,-7.054582238E-3,-2.438941225E-2,-3.980827332E-2
1.555575818E1,-8.027449250E-3,-1.873541996E-2,-5.175685883E-2
1.556579841E1,-1.614741981E-3,-2.855652571E-2,-3.497600555E-2
1.557583863E1,-1.241192222E-4,-3.984623030E-2,1.531696320E-2
1.558587885E1,8.418552577E-3,-2.473174036E-2,5.364036560E-2
1.559591907E1,2.639923990E-2,-2.176396549E-2,5.844593048E-2
1.560595929E1,6.520479918E-3,-2.873323485E-2,4.650306702E-2
1.561599951E1,-2.232881635E-2,-3.126574308E-2,4.414749146E-2
1.562603973E1,8.542343974E-3,-2.696102858E-2,2.982521057E-2
1.563611047E1,1.773084700E-2,-3.442150354E-2,3.944492340E-2
1.564615069E1,1.506873965E-2,-4.157960042E-2,4.906558990E-2
1.565619092E1,1.728828251E-2,-2.727442980E-2,4.911422729E-2
1.566623114E1,3.595560044E-2,-1.777023077E-2,1.085376740E-2
1.567627136E1,1.922505349E-2,-2.013707161E-2,-1.063346863E-3
1.568631158E1,2.382060885E-2,-2.001198381E-2,-5.128860474E-2
1.569635180E1,-7.577456534E-3,-9.995296597E-3,-7.278633118E-2
1.570642254E1,-1.038209349E-2,-2.072693408E-2,-5.119800568E-2
1.571646276E1,-3.884345293E-2,-2.105212212E-2,8.695602417E-3
1.572650298E1,-1.271668077E-2,7.582768798E-3,1.284360886E-1
1.573654320E1,8.544012904E-3,1.654742658E-2,1.811456680E-1
1.574658342E1,-1.327949017E-2,-4.419341683E-3,1.716251373E-1
1.575662365E1,-8.717425168E-3,-5.431219935E-3,1.453695297E-1
1.576666387E1,5.577951670E-4,-3.032296896E-3,1.023778915E-1
1.577670409E1,7.123343647E-3,-1.593327522E-2,4.982757568E-2
1.578677483E1,-1.064156741E-2,-3.742426634E-4,-6.257152557E-2
1.579681505E1,-1.644597948E-2,-1.337382197E-2,-1.462354660E-1
1.580685527E1,-1.244056225E-2,-1.300619543E-2,-1.580915451E-1
1.581689549E1,-8.660696447E-3,4.923969507E-3,-3.114128113E-2
1.582693571E1,-1.471800357E-2,2.944941819E-2,1.604156494E-1
1.583697594E1,1.526530087E-2,-3.295168281E-3,2.202901840E-1
1.584701616E1,2.172058821E-2,-5.950927734E-3,8.147048950E-2
1.585708690E1,9.489297867E-3,-1.722994447E-2,-2.140235901E-2
1.586712712E1,1.900576800E-2,-1.265911758E-2,-1.745300293E-1
1.587716734E1,1.397936791E-2,-2.201615274E-2,-2.175321579E-1
1.588720756E1,1.589378715E-2,-2.993060648E-2,-1.288871765E-1
1.589724778E1,3.396636993E-2,-2.813705802E-2,5.546855927E-2
1.590728800E1,3.251887858E-2,-3.562122583E-2,2.565727234E-1
1.591732822E1,2.844488621E-2,-2.293515205E-2,3.308124542E-1
1.592736844E1,2.442227304E-2,-6.031334400E-3,2.878007889E-1
1.593740867E1,2.290292084E-2,1.212450862E-2,1.634721756E-1
1.594747940E1,1.420832425E-2,1.072315872E-2,2.964019775E-2
1.595751963E1,1.521793008E-2,1.058347523E-2,-3.950691223E-2
1.596755985E1,-2.203119546E-2,1.509723067E-2,-7.272052765E-2
1.597760007E1,-1.852688193E-2,-2.669990063E-3,-1.035709381E-1
1.598764029E1,-3.624521941E-2,-1.863935590E-2,-1.129102707E-1
1.599768051E1,-1.055926830E-2,-1.354283094E-2,-6.483364105E-2
1.600772073E1,-1.334094256E-2,-1.861473918E-2,-3.116893768E-2
1.601776095E1,-1.115529239E-2,-2.237746119E-2,4.795074463E-2
1.602783169E1,-1.704432070E-3,-8.552968502E-3,5.282688141E-2
1.603787191E1,1.012589782E-2,-4.009217024E-3,1.459884644E-2
1.604791214E1,1.244630665E-2,-1.860439777E-3,2.708435059E-3
1.605795236E1,1.490750164E-2,-2.586773038E-2,4.109382629E-2
1.606799258E1,1.491350681E-2,-2.836430073E-2,1.153917313E-1
1.607803280E1,2.630822361E-3,-2.396687865E-2,1.633605957E-1
1.608807302E1,-1.854225993E-4,-3.242230415E-2,2.017812729E-1
1.609811324E1,1.600564271E-2,-4.212594032E-2,1.301088333E-1
1.610818398E1,8.760012686E-3,-2.711620927E-2,-6.145477295E-3
1.611822420E1,2.085731179E-2,-2.475100756E-2,-1.303997040E-1
1.612826442E1,6.674505770E-3,-2.166542411E-2,-1.996059418E-1
1.613830464E1,-1.032533497E-2,-1.941162348E-2,-1.252164841E-1
1.614834487E1,-8.274964988E-3,5.047947168E-3,-7.837295532E-3
1.615838509E1,-8.279211819E-3,1.396453381E-2,1.023197174E-1
1.616842531E1,1.589752734E-2,2.024120092E-2,1.669969559E-1
1.617846553E1,2.828583866E-2,1.814344525E-2,1.431341171E-1
1.618853627E1,1.670543104E-2,7.338136435E-3,1.121425629E-1
1.619857649E1,2.551898360E-4,1.902332902E-2,3.092670441E-2
1.620861671E1,-9.286187589E-3,-8.593469858E-3,9.605407715E-3
1.621865693E1,4.738755524E-3,-3.108590841E-3,-4.282760620E-2
1.622869716E1,-9.821467102E-3,-2.098432183E-2,-2.584362030E-2
1.623873738E1,-1.195797324E-2,-3.812032938E-2,1.745414734E-2
1.624877760E1,-6.727524102E-3,-1.435357332E-2,4.159641266E-2
1.625881782E1,-2.316221595E-2,-4.672229290E-3,7.530403137E-2
1.626888856E1,-6.451696157E-3,-7.314443588E-3,6.832504272E-2
1.627892878E1,9.925857186E-3,1.837849617E-3,4.219722748E-2
1.628896900E1,-5.049571395E-3,-1.134127378E-3,1.847171783E-2
1.629900922E1,3.725163639E-3,1.250585914E-2,3.066730499E-2
1.630904944E1,7.038563490E-5,-4.647552967E-3,3.805923462E-2
1.631908966E1,-1.076867431E-2,-9.572803974E-3,1.192378998E-2
1.632912988E1,1.419730484E-2,4.920899868E-3,-9.433746338E-3
1.633917011E1,-1.348532736E-3,-1.846799254E-2,-2.601718903E-2
1.634921033E1,-8.891813457E-3,-2.197164297E-2,-5.459499359E-2
1.635928107E1,-1.570089161E-2,-4.349508882E-2,-5.209159851E-2
1.636932129E1,-1.307223737E-2,-3.088068962E-2,6.608963013E-4
1.637936151E1,-1.072760671E-2,-2.528250217E-2,3.185653687E-2
1.638940173E1,-1.847165823E-2,-1.501432061E-2,1.038074493E-2
1.639944195E1,-4.972152412E-3,-5.391061306E-3,5.118179321E-2
1.640948217E1,5.803808570E-3,-1.502934098E-2,6.325531006E-2
1.641952240E1,8.958436549E-3,1.066535711E-3,6.338214874E-2
1.642956262E1,-9.811952710E-3,4.750102758E-3,4.916286469E-2
1.643960284E1,4.801742733E-3,-1.815021038E-2,-5.745887756E-3
1.644967358E1,1.000406593E-2,-7.748156786E-3,-1.993942261E-2
1.645971380E1,-5.918890238E-3,-1.374775171E-2,2.331733704E-2
1.646975402E1,-1.598329842E-2,-4.621535540E-3,9.288024902E-2
1.647979424E1,1.037039608E-2,-4.259049892E-4,1.313304901E-1
1.648983446E1,1.074913144E-2,1.025030017E-2,1.267232895E-1
1.649987468E1,1.594537497E-2,1.040270925E-2,1.006174088E-1
1.650991491E1,1.931756735E-3,4.273879528E-2,7.697296143E-2
1.651998564E1,2.099029347E-2,2.685099840E-2,6.771087646E-2
1.653002587E1,-7.037147880E-4,2.027735114E-2,6.325435638E-2
1.654006609E1,1.476116478E-3,-1.025515795E-2,-3.447532654E-3
1.655010631E1,5.755163729E-3,-6.980657578E-3,-1.060743332E-1
1.656014653E1,1.702944189E-2,-1.706480980E-2,-1.393194199E-1
1.657018675E1,-1.085475087E-2,6.860494614E-4,-3.378391266E-2
1.658022697E1,-1.629520208E-2,-2.553987503E-2,1.075754166E-1
1.659026719E1,1.333699375E-2,-1.591491699E-2,1.411943436E-1
1.660030742E1,2.435883880E-2,-5.003213882E-2,1.683712006E-2
1.661037815E1,1.752796397E-2,-2.965563536E-2,-1.122694016E-1
1.662041837E1,1.525715366E-2,-2.829009295E-2,-2.006664276E-1
1.663045860E1,3.106698394E-2,-3.894752264E-2,-1.886281967E-1
1.664049882E1,3.265357390E-2,-3.756541014E-2,-3.067684174E-2
1.665053904E1,1.945263147E-2,-3.048580885E-2,2.229909897E-1
1.666057926E1,5.356222391E-3,-1.928907633E-2,3.952865601E-1
1.667061948E1,-1.197939366E-2,-3.610968590E-3,4.049186707E-1
1.668065970E1,-3.213450313E-2,4.181939363E-2,2.567367554E-1
1.669073044E1,-6.581343710E-3,5.990320444E-2,6.804656982E-2
1.670077066E1,-3.293439373E-2,4.990351200E-2,-3.913021088E-2
1.671081088E1,-3.706216067E-2,4.684060812E-2,-1.127595901E-1
1.672085110E1,-5.111549795E-2,2.148383856E-2,-1.361980438E-1
1.673089133E1,1.635799184E-2,-1.655793190E-2,-1.214361191E-1
1.674093155E1,5.453670770E-2,-2.638995647E-2,-7.088565826E-2
1.675097177E1,3.285051882E-2,-8.186393976E-2,3.938102722E-2
1.676101199E1,8.646643907E-2,-5.770683289E-2,4.187011719E-2
1.677108273E1,1.835999079E-2,-3.400236368E-2,1.329517365E-2
1.678112295E1,-2.052159235E-2,-1.231187582E-2,-3.204154968E-2
1.679116317E1,-1.096708179E-1,-1.116043329E-2,-3.672504425E-2
1.680120339E1,-1.051591933E-1,-2.736771107E-2,-3.218650818E-3
1.681124362E1,-6.515984237E-2,-1.208144426E-2,2.785968781E-2
1.682128384E1,-1.662337407E-2,-1.107311249E-2,8.526229858E-2
1.683135458E1,1.035970077E-2,8.863091469E-3,1.450738907E-1
1.684139480E1,1.178611070E-3,-8.093237877E-3,1.714239120E-1
1.685143502E1,1.750685275E-2,1.892232895E-2,1.427946091E-1
1.686147524E1,-5.279295146E-4,-1.200318336E-3,5.919742584E-2
1.687151546E1,5.149308592E-3,-1.048266888E-3,-7.220649719E-2
1.688155568E1,6.908550858E-5,-1.487374306E-2,-1.533479691E-1
1.689159590E1,-1.852760836E-2,-2.961325645E-2,-1.196537018E-1
1.690166664E1,-1.505470648E-2,-1.592785120E-2,-4.299068451E-2
1.691170686E1,1.475362852E-2,-2.957612276E-2,7.428646088E-2
1.692174708E1,3.008304536E-2,4.843473434E-3,1.125431061E-1
1.693178731E1,4.019765556E-2,2.383697033E-2,1.077671051E-1
1.694182753E1,5.229745433E-2,5.316418409E-2,7.675552368E-2
1.695186775E1,7.526393980E-3,6.681925058E-2,5.301189423E-2
1.696190797E1,2.034218609E-2,4.160928726E-2,3.170013428E-2
1.697197871E1,-3.606826067E-5,2.338039875E-2,3.434658051E-2
1.698201893E1,-1.079917327E-2,3.380197287E-2,-6.096839905E-3
1.699205915E1,-4.740286618E-3,1.108270884E-2,1.329421997E-2
1.700209937E1,-1.543854922E-2,-1.094233990E-2,1.588153839E-2
1.701213959E1,-9.619072080E-3,-2.993315458E-2,2.082157135E-2
1.702217982E1,-1.852460206E-3,-3.891438246E-2,2.094173431E-2
1.703222004E1,-1.089023799E-2,-4.757755995E-2,6.676673889E-3
1.704226026E1,-2.698615193E-2,-2.523612976E-2,-1.236820221E-2
1.705230048E1,-2.136246860E-2,-2.657711506E-2,2.124404907E-2
1.706237122E1,-8.573375642E-3,1.521039009E-2,4.527759552E-2
1.707241144E1,-1.930258423E-2,4.487335682E-3,7.648658752E-2
1.708245166E1,-8.291639388E-3,-6.368637085E-3,8.376312256E-2
1.709249188E1,1.211219653E-2,3.673911095E-3,5.995750427E-2
1.710253210E1,2.026861534E-2,-2.236646414E-2,4.334449768E-2
1.711257233E1,-2.198293805E-4,-2.014249563E-2,3.394603729E-2
1.712261255E1,-2.317284048E-2,-4.400157928E-2,-4.199981689E-3
1.713265277E1,-1.565262675E-2,-3.448599577E-2,-3.755283356E-2
1.714272351E1,-6.110079587E-3,-2.232319117E-2,-8.768272400E-2
1.715276373E1,-3.776758909E-3,-1.655524969E-2,-7.082843781E-2
1.716280395E1,2.499842644E-2,-9.725034237E-3,-3.766059875E-3
1.717284417E1,6.420880556E-3,1.460587978E-2,6.564331055E-2
1.718288439E1,2.606433630E-2,3.408980370E-2,1.518163681E-1
1.719292461E1,7.307000458E-3,3.383892775E-2,1.590185165E-1
1.720296484E1,2.417370677E-3,3.941369057E-2,1.256084442E-1
1.721300506E1,-2.309188247E-3,4.527455568E-2,8.994770050E-2
1.722307580E1,1.228483021E-2,2.903997898E-2,6.151008606E-2
1.723311602E1,8.136406541E-4,1.755505800E-2,3.786754608E-2
1.724315624E1,6.027728319E-3,-8.182346821E-3,-1.468658447E-4
1.725319646E1,-1.490629464E-2,-3.816378117E-2,-9.086799622E-2
1.726323668E1,-4.432708025E-3,-3.133094311E-2,-1.194000244E-1
1.727327690E1,-1.994217187E-2,-3.927838802E-2,-3.553962708E-2
1.728331712E1,-2.859510481E-2,-1.716357470E-2,4.822540283E-2
1.729338786E1,-5.748014897E-2,-1.597082615E-2,6.490135193E-2
1.730342808E1,-3.455045074E-2,8.341789246E-3,2.616882324E-3
1.731346830E1,-7.146932185E-3,-1.422524452E-3,-7.638835907E-2
1.732350853E1,1.591502130E-2,3.266870975E-3,-1.362438202E-1
1.733354875E1,1.777378097E-2,-7.979750633E-3,-9.320354462E-2
1.734358897E1,7.465854287E-4,-1.545649767E-2,9.598731995E-3
1.735362919E1,1.475070417E-2,-1.502221823E-2,1.817817688E-1
1.736369993E1,-2.462424338E-3,6.467044353E-3,3.085098267E-1
1.737374015E1,1.122219115E-2,8.406043053E-4,3.396873474E-1
1.738378037E1,3.712002560E-2,1.615869999E-2,2.058744431E-1
1.739382059E1,1.049925387E-2,1.916158199E-2,7.225704193E-2
1.740386081E1,-1.573459059E-2,3.512877226E-2,-6.125354767E-2
1.741390104E1,-3.456585109E-2,5.941152573E-3,-9.901237488E-2
1.742394126E1,-2.923917770E-2,2.055644989E-3,-9.855651855E-2
1.743398148E1,-2.368193120E-2,-7.125139236E-3,-8.386516571E-2
1.744405222E1,-1.565378159E-2,-2.148813009E-2,-4.058837891E-2
1.745409244E1,-4.079825431E-2,-2.605003119E-2,-9.471893311E-3
1.746413266E1,-3.462295234E-2,-2.717906237E-2,3.114891052E-2
1.747417288E1,-1.870075613E-2,-2.577859163E-2,5.021190643E-2
1.748421310E1,2.230577171E-3,4.269003868E-3,5.252647400E-2
1.749425332E1,-1.255099475E-2,-3.767228127E-2,5.485248566E-2
1.750429354E1,8.636422455E-3,-2.747857571E-2,3.567123413E-2
1.751433377E1,1.073180139E-2,-3.922396898E-2,4.548072815E-3
1.752437399E1,2.974689007E-3,-2.949738503E-2,6.201553345E-2
1.753444473E1,6.245322526E-3,-4.351836443E-2,1.003065109E-1
1.754448495E1,-1.960689574E-2,-3.427451849E-2,9.554672241E-2
1.755452517E1,-1.962143928E-2,-1.887249947E-2,6.930828094E-2
1.756456539E1,6.234891713E-3,2.910137177E-3,-7.153511047E-3
1.757460561E1,2.712066472E-2,1.243454218E-2,-8.598995209E-2
1.758464583E1,2.672736347E-2,3.429830074E-3,-1.145906448E-1
1.759468606E1,2.634130418E-3,-4.298090935E-3,-7.624435425E-2
1.760472628E1,1.676429808E-2,-8.737444878E-4,3.620624542E-2
1.761479702E1,2.795874327E-2,-1.081794500E-2,1.006937027E-1
1.762483724E1,3.431266546E-2,2.645075321E-3,1.269140244E-1
1.763487746E1,2.402228862E-2,1.247727871E-2,8.139896393E-2
1.764491768E1,2.103006095E-2,3.533041477E-2,3.598213196E-2
1.765495790E1,1.371698081E-2,1.942354441E-2,3.609466553E-2
1.766499812E1,1.934118569E-3,1.044803858E-2,3.383350372E-2
1.767503834E1,1.190905273E-2,3.967523575E-3,1.001930237E-2
1.768507856E1,-1.855727285E-2,-2.834713459E-2,2.208328247E-2
1.769511879E1,-8.645944297E-3,-4.545861483E-2,2.690124512E-2
1.770518952E1,-1.716926694E-3,-4.081630707E-2,5.324554443E-2
1.771522975E1,-4.582345486E-3,-4.087728262E-2,2.967834473E-3
1.772526997E1,6.508052349E-3,-3.130912781E-2,1.014232635E-2
1.773531019E1,-1.325771958E-2,-3.591662645E-2,-1.381778717E-2
1.774535041E1,-3.271131963E-2,-9.250700474E-3,2.915382385E-3
1.775539063E1,-3.060220927E-2,5.802750587E-3,2.919864655E-2
1.776543085E1,-1.886837929E-2,-1.453316212E-2,5.783748627E-2
1.777547107E1,-4.692487419E-3,-1.600503922E-3,7.452392578E-2
1.778554181E1,5.238734186E-3,5.940437317E-3,8.168411255E-2
1.779558203E1,1.295720786E-2,-1.084172726E-2,7.929515839E-2
1.780562226E1,1.542702317E-3,-6.801664829E-3,5.780887604E-2
1.781566248E1,-1.224797964E-2,-1.270776987E-2,4.113578796E-2
1.782570270E1,2.487443388E-3,-1.655107737E-2,3.406333923E-2
1.783574292E1,-9.479671717E-3,-1.069867611E-2,1.021862030E-2
1.784578314E1,-1.449027658E-2,-9.197056293E-3,3.661918640E-2
1.785582336E1,6.618618965E-3,7.139146328E-3,4.622364044E-2
1.786589410E1,3.239877522E-2,2.424597740E-2,8.210563660E-2
1.787593432E1,5.082936212E-2,1.326179504E-2,1.466703415E-1
1.788597454E1,5.235498399E-2,2.855581045E-2,1.801128387E-1
1.789601476E1,6.314903498E-3,3.635686636E-2,1.992158890E-1
1.790605499E1,7.626160979E-3,3.156214952E-2,1.225938797E-1
1.791609521E1,-2.456317097E-2,1.929199696E-2,1.297893524E-1
1.792613543E1,-2.082213759E-3,2.153384686E-2,1.321821213E-1
1.793617565E1,-1.479610801E-3,2.881288528E-4,1.225690842E-1
1.794624639E1,-8.816473186E-3,-1.026654243E-2,1.104745865E-1
1.795628661E1,-1.623346657E-2,-1.527553797E-2,6.001663208E-2
1.796632683E1,5.320012569E-4,-3.554791212E-2,9.085559845E-2
1.797636705E1,5.068185180E-2,-1.602029800E-2,1.766538620E-1
1.798640728E1,2.453026548E-2,2.144181728E-2,2.168998718E-1
1.799644750E1,-2.316917479E-2,1.888096333E-2,1.541681290E-1
1.800648772E1,-5.512377620E-2,6.840109825E-3,8.426380157E-2
1.801652794E1,-8.555822074E-3,1.667314768E-2,5.504035950E-2
1.802659868E1,8.804067969E-3,1.404154301E-2,3.765964508E-2
1.803663890E1,1.149541140E-2,1.038563251E-2,-6.360244751E-2
1.804667912E1,-4.987142980E-3,6.207644939E-3,-1.051216125E-1
1.805671934E1,-3.311783075E-5,1.825726032E-2,-1.299858093E-1
1.806675956E1,1.198834926E-2,2.286422253E-2,-9.750270844E-2
1.807679978E1,-4.848890007E-3,1.468533278E-2,1.948356628E-3
1.808684001E1,1.136758178E-2,9.469270706E-3,6.069564819E-2
1.809688023E1,2.499008924E-2,1.575303078E-2,4.288959503E-2
1.810692045E1,1.972609013E-2,-3.748536110E-3,-8.296966553E-3
1.811696067E1,-6.693817675E-3,-3.162658215E-2,-8.572292328E-2
1.812703141E1,-1.380283386E-2,-1.497012377E-2,-1.415252686E-1
1.813707163E1,-6.087683886E-2,-2.686092257E-2,-1.206922531E-1
1.814711185E1,-5.108640343E-2,-3.370019794E-2,-7.352066040E-2
1.815715207E1,-2.988251299E-2,-4.007568955E-2,1.434707642E-2
1.816719229E1,-1.813046634E-2,-4.154318571E-2,9.505081177E-2
1.817723252E1,-1.557014883E-3,-1.512449980E-2,1.231460571E-1
1.818727274E1,-3.826156259E-3,-9.309619665E-3,1.345691681E-1
1.819731296E1,-3.618918359E-3,-9.240359068E-3,1.149291992E-1
1.820738370E1,2.478924394E-2,1.616188884E-2,7.139682770E-2
1.821742392E1,1.690331101E-2,3.613570333E-2,8.775329590E-2
1.822746414E1,2.779469639E-2,4.148152471E-2,6.581878662E-2
1.823750436E1,4.797612131E-2,3.744059801E-2,3.670120239E-2
1.824754458E1,4.070132971E-3,3.838780522E-2,2.914333344E-2
1.825758480E1,2.208122611E-2,4.686737061E-2,-2.151584625E-2
1.826762502E1,-4.815205932E-3,2.311408520E-2,-6.022930145E-2
1.827766525E1,1.133202016E-2,2.242159843E-2,-1.013736725E-1
1.828770547E1,1.201286912E-3,8.696138859E-3,-9.226036072E-2
1.829777621E1,-9.138658643E-3,-1.564088464E-2,-5.204296112E-2
1.830781643E1,-1.711627841E-2,-1.772508025E-2,-2.379131317E-2
1.831785665E1,-1.808536053E-2,-4.074338078E-2,2.362632751E-2
1.832789687E1,1.440556347E-2,-2.339117229E-2,6.629467010E-2
1.833793709E1,2.085769176E-2,-5.428488553E-2,6.830596924E-2
1.834797731E1,1.780083776E-2,-3.615577519E-2,7.755756378E-2
1.835801753E1,7.650196552E-3,-6.235849857E-2,9.883022308E-2
1.836805776E1,-2.846588194E-2,-6.006382406E-2,5.553627014E-2
1.837812850E1,-3.128728271E-2,-5.232578516E-2,4.341125488E-2
1.838816872E1,-4.192531109E-2,-5.787956715E-2,4.971504211E-3
1.839820894E1,-3.914049268E-2,-5.744237453E-2,-1.669597626E-2
1.840824916E1,-2.750013769E-2,-6.244957447E-2,-3.596496582E-2
1.841828938E1,-4.738631845E-2,-3.908646107E-2,-4.804801941E-2
1.842832960E1,-6.272676587E-2,-2.051227540E-2,-3.618526459E-2
1.843836982E1,-4.751083255E-2,-1.092824340E-2,-6.264495850E-2
1.844841004E1,-3.252394497E-2,-1.276922971E-2,-4.361724854E-2
1.845848078E1,-1.315768063E-2,2.670779824E-3,-5.442619324E-3
1.846852100E1,-9.444206953E-4,-1.980749518E-2,4.710197449E-2
1.847856122E1,4.056721926E-3,-1.094701886E-2,5.894851685E-2
1.848860145E1,4.483267665E-3,-3.059107438E-2,6.122970581E-2
1.849864167E1,-9.089514613E-3,-7.569015026E-3,7.071018219E-2
1.850868189E1,-3.390476108E-3,-1.365577057E-2,5.626106262E-2
1.851872211E1,1.247902215E-2,-5.544293672E-3,3.225040436E-2
1.852876233E1,1.213003695E-2,9.697951376E-3,1.543807983E-2
1.853880255E1,2.663123608E-2,8.203014731E-3,3.694534302E-2
1.854887329E1,2.442111075E-2,2.095856518E-2,7.522106171E-2
1.855891351E1,5.271375179E-3,3.105432726E-2,1.015300751E-1
1.856895374E1,-4.334732890E-3,3.576496243E-2,9.432601929E-2
1.857899396E1,-3.551383317E-2,3.249122947E-2,5.361080170E-2
1.858903418E1,-4.546089470E-2,3.106466867E-2,-3.259468079E-2
1.859907440E1,-4.214869440E-2,2.467063814E-2,-7.092666626E-2
1.860911462E1,-8.349433541E-3,1.664116420E-2,-1.212358475E-1
1.861915484E1,3.264461458E-2,4.689347465E-3,-1.595687866E-1
1.862922558E1,2.389008552E-2,-8.412566036E-3,-1.332426071E-1
1.863926580E1,6.429740787E-2,-1.767584682E-2,2.476119995E-2
1.864930602E1,4.627297074E-2,-1.690001786E-2,1.157569885E-1
1.865934624E1,6.206712872E-2,-4.312129691E-2,1.995820999E-1
1.866938647E1,3.488437086E-2,-4.714252055E-2,1.804590225E-1
1.867942669E1,9.070165455E-3,-3.969153762E-2,9.187889099E-2
1.868946691E1,-1.965247095E-2,-1.943104342E-2,-3.023338318E-2
1.869950713E1,1.114942878E-2,-9.047038853E-3,-1.068582535E-1
1.870954735E1,1.305820048E-2,4.609696567E-3,-7.573890686E-2
1.871961809E1,-1.689456403E-3,7.647328079E-3,-1.348114014E-2
1.872965831E1,-3.966733813E-3,1.201210171E-2,9.428691864E-2
1.873969853E1,-7.920548320E-3,1.192782819E-2,1.326389313E-1
1.874973875E1,-4.218034446E-3,-7.668823004E-3,8.959579468E-2
1.875977898E1,-4.042720050E-2,-1.173713058E-2,3.936862946E-2
1.876981920E1,-4.084631056E-2,2.372972667E-3,-2.044391632E-2
1.877985942E1,-2.752958983E-2,6.426870823E-3,-3.238105774E-2
1.878989964E1,-2.380612493E-2,1.523247361E-2,-3.474044800E-2
1.879993986E1,-3.163650632E-2,2.638312429E-2,-1.182556152E-3
1.881001060E1,-2.021495998E-2,2.310231328E-3,5.872440338E-2
1.882005082E1,-1.589771360E-2,-4.578679800E-3,6.596755981E-2
1.883009104E1,-4.001279920E-2,-1.136468351E-2,2.772712708E-2
1.884013126E1,-3.100631386E-2,-6.359651685E-3,-3.206539154E-2
1.885017148E1,-2.711731941E-2,-1.773920655E-2,-8.467006683E-2
1.886021171E1,-4.462547600E-3,-2.587875724E-2,-1.276855469E-1
1.887025193E1,-8.111916482E-3,-5.177623034E-2,-4.378223419E-2
1.888029215E1,9.485386312E-3,-3.645703197E-2,7.365226746E-2
1.889033237E1,2.964194864E-2,-4.769015312E-2,1.719379425E-1
1.890040311E1,1.638909429E-2,-3.092782199E-2,2.726116180E-1
1.891044333E1,-1.128275692E-2,-1.127868891E-2,3.086099625E-1
1.892048355E1,-2.961778641E-2,-1.530139148E-2,2.176761627E-1
1.893052377E1,-6.033129990E-2,2.060694993E-2,1.194972992E-1
1.894056400E1,-3.875661641E-2,5.825749040E-2,-1.461219788E-2
1.895060422E1,-4.770025611E-3,8.896595985E-2,-1.151924133E-1
1.896064444E1,1.310771704E-2,8.275240660E-2,-1.846160889E-1
1.897068466E1,4.392099753E-2,7.629790157E-2,-1.725873947E-1
1.898075540E1,5.086614192E-2,6.663398445E-2,-1.270065308E-1
1.899079562E1,6.279343367E-2,4.503658414E-2,-1.912307739E-2
1.900083584E1,7.697288692E-2,3.415291011E-2,9.780883789E-3
1.901087606E1,8.794780821E-2,-1.486679912E-2,-3.553104401E-2
1.902091628E1,2.004076168E-2,-1.659525931E-2,-5.930137634E-2
1.903095650E1,3.830716014E-3,-5.899560452E-2,-2.082252502E-2
1.904099673E1,1.698441803E-3,-5.822603405E-2,4.639339447E-2
1.905103695E1,-1.712829620E-2,-4.338794947E-2,7.290744781E-2
1.906107717E1,-2.382069826E-2,-3.169971704E-2,6.110191345E-2
1.907114791E1,-1.856049895E-2,-3.770005703E-2,2.293968201E-2
1.908118813E1,-3.221870959E-2,-3.953808546E-2,-5.656242371E-3
1.909122835E1,-2.195273340E-2,-4.891413450E-2,4.953765869E-2
1.910126857E1,-3.521197289E-2,-3.937351704E-2,1.167011261E-1
1.911130879E1,-4.338477552E-2,-4.217135906E-2,1.479444504E-1
1.912134901E1,-3.699482605E-2,-2.675312757E-2,6.184864044E-2
1.913138924E1,-2.996075898E-2,-3.138187528E-2,-2.426815033E-2
1.914142946E1,-3.683872521E-3,-3.158923984E-2,-8.884811401E-2
1.915150020E1,2.028353140E-2,-7.705360651E-3,-9.356594086E-2
1.916154042E1,1.552356780E-2,3.313124180E-4,9.482383728E-3
1.917158064E1,-2.263384685E-2,1.901376247E-2,1.197490692E-1
1.918162086E1,-2.769569308E-2,6.831526756E-3,2.419939041E-1
1.919166108E1,-8.806379884E-2,1.509076357E-2,2.899837494E-1
1.920170130E1,-8.426797390E-2,7.376909256E-3,2.613058090E-1
1.921174152E1,-8.847027272E-2,-1.612001657E-2,1.416139603E-1
1.922178174E1,-7.097049803E-2,-5.120307207E-3,3.147125244E-4
1.923185248E1,1.141852885E-2,7.981061935E-4,-1.505689621E-1
1.924189270E1,4.136003926E-2,-1.141825318E-2,-2.415618896E-1
1.925193293E1,4.230194166E-2,-2.301651239E-2,-2.366943359E-1
1.926197315E1,3.412330151E-2,1.067796350E-2,-1.264076233E-1
1.927201337E1,4.559364915E-2,9.687542915E-3,-4.102706909E-3
1.928205359E1,4.773060605E-2,-5.406111479E-3,4.878330231E-2
1.929209381E1,-6.369371712E-2,4.119873047E-4,4.418468475E-2
1.930213403E1,-7.273693383E-2,2.183791995E-2,-2.509593964E-2
1.931217425E1,-2.295400947E-2,4.752123356E-2,-1.614341736E-1
1.932224499E1,5.558139086E-2,6.589102745E-2,-1.325750351E-1
1.933228521E1,5.504506454E-2,5.127346516E-2,-4.862880707E-2
1.934232544E1,3.889692575E-2,7.812082767E-3,5.935096741E-2
1.935236566E1,2.606886998E-2,-1.903343201E-2,2.295827866E-1
1.936240588E1,3.721438348E-3,-1.593995094E-2,2.776708603E-1
1.937244610E1,-6.712514907E-3,8.845299482E-3,2.107534409E-1
1.938248632E1,-2.467006817E-2,3.116145730E-2,8.627986908E-2
1.939252654E1,-9.597584605E-3,1.853206754E-2,-4.543209076E-2
1.940259728E1,-8.900579065E-3,3.426745534E-2,-1.268806458E-1
1.941263750E1,1.125340723E-2,2.917948365E-2,-1.245021820E-1
1.942267772E1,4.641794786E-2,2.853924036E-2,-9.570693970E-2
1.943271794E1,3.694375232E-2,5.427658558E-3,-2.854537964E-2
1.944275817E1,1.820720918E-2,-1.204550266E-2,5.133628845E-3
1.945279839E1,-1.007249020E-2,-3.152093291E-2,-1.384353638E-2
1.946283861E1,-4.590051621E-2,-2.454000711E-2,-6.477355957E-3
1.947290935E1,-5.359059200E-2,-2.474725246E-2,2.483081818E-2
1.948294957E1,-4.480973631E-2,-3.934320807E-2,9.444522858E-2
1.949298979E1,-3.123311140E-2,-2.324977517E-2,1.448907852E-1
1.950303001E1,6.751876324E-3,1.277914643E-2,1.042928696E-1
1.951307023E1,4.481014609E-2,1.627108455E-2,9.715557098E-2
1.952311046E1,3.540606052E-2,2.123737335E-2,9.716320038E-2
1.953315068E1,4.957150668E-2,2.081024647E-2,1.019334793E-1
1.954319090E1,1.827547885E-2,3.180429339E-2,9.231472015E-2
1.955326164E1,1.322507858E-3,2.838027477E-2,5.875301361E-2
1.956330186E1,5.718780681E-3,2.728903294E-2,4.673576355E-2
1.957334208E1,-2.129648253E-2,1.229083538E-2,3.611564636E-3
1.958338230E1,-2.238256112E-2,4.127347469E-2,-1.314067841E-2
1.959342252E1,-2.853445150E-2,3.753915429E-2,-5.140781403E-2
1.960346274E1,-3.235679865E-2,3.480499983E-2,-5.371952057E-2
1.961350297E1,-5.029409379E-2,2.576869726E-2,-5.599403381E-2
1.962357370E1,-6.112682819E-2,4.146429896E-2,-7.955551147E-3
1.963361393E1,-6.054726988E-2,1.053622365E-2,2.577304840E-2
1.964365415E1,-2.489117905E-2,1.644223928E-3,3.079319000E-2
1.965369437E1,-8.126753382E-3,-3.561106324E-2,-2.641773224E-2
1.966373459E1,-1.233138144E-2,-5.385854840E-2,-9.559822083E-2
1.967377481E1,-8.827388287E-3,-5.269277096E-2,-7.617855072E-2
1.968381503E1,-1.939766482E-2,-4.201734066E-2,-3.281688690E-2
1.969388577E1,-2.944088355E-2,-7.336995006E-2,4.651355743E-2
1.970392599E1,3.813348711E-2,-7.633352280E-2,8.512878418E-2
1.971396621E1,8.272734284E-2,-7.703590393E-2,5.909824371E-2
1.972400643E1,6.407371163E-2,-7.472810149E-2,8.326625824E-2
1.973404666E1,8.093315363E-2,-7.100003958E-2,1.026000977E-1
1.974408688E1,-3.432306275E-2,-2.241525054E-2,2.175569534E-1
1.975412710E1,-6.665746123E-2,-1.297801733E-3,2.127466202E-1
1.976416732E1,-2.479355596E-2,1.822629571E-2,4.505538940E-2
1.977423806E1,-1.622436568E-3,4.162734747E-2,-9.155654907E-2
1.978427828E1,7.701991126E-5,3.179299831E-2,-1.539335251E-1
1.979431850E1,-9.771763347E-3,2.831712365E-2,-9.412860870E-2
1.980435872E1,3.352377564E-2,3.605690598E-2,6.630897522E-2
1.981439894E1,2.234526724E-2,3.330460191E-2,2.172412872E-1
1.982443916E1,1.480907761E-2,1.326280832E-2,2.412557602E-1
1.983447939E1,-1.032008603E-2,6.139576435E-3,1.790094376E-1
1.984455013E1,-4.467466474E-2,1.910552382E-2,5.205059052E-2
1.985459035E1,-1.267911121E-2,1.515367627E-2,-9.406948090E-2
1.986463057E1,-4.689280875E-3,6.825745106E-3,-2.760820389E-1
1.987467079E1,-1.829965040E-2,1.915675402E-2,-4.101390839E-1
1.988471101E1,-1.251460053E-2,7.261991501E-3,-4.842386246E-1
1.989475123E1,1.011557039E-2,5.350053310E-3,-4.121561050E-1
1.990479145E1,6.615985185E-2,-5.728363991E-3,-1.292419434E-1
1.991483168E1,3.177566081E-2,-1.475971937E-2,1.896944046E-1
1.992487190E1,5.779033899E-2,-1.517701149E-2,5.085916519E-1
